"TimeStamp","FrameCounter","AccX","AccY","AccZ","GyrX","GyrY","GyrZ"
"0.01","1","0.007","-0.059","-0.03","0.2291832","-3.437748","-0.859437"
"0.01","1","0.026","-0.064","0.017","1.4896908","-4.5263682","5.0993262"
"0.01","1","-0.009","-0.002","-0.002","0.1145916","-0.7448454","0.0"
"0.01","1","0.003","0.011","-0.001","0.859437","-0.859437","-0.3437748"
"0.01","1","-0.014","-0.032","-0.011","-2.1199445999999997","1.0313244","0.572958"
"0.01","1","0.016","-0.003","-0.001","0.6875496","-0.1145916","1.6042824"
"0.02","2","0.022","-0.067","-0.032","1.6042824","-3.8961144","-0.9167328"
"0.02","2","0.025","0.003","-0.008","2.9793816","-4.3544808","4.2398891999999995"
"0.02","2","-0.01","-0.001","-0.002","0.1145916","-0.9740286","0.0572958"
"0.02","2","0.008","0.014","0.001","0.9167328","-0.8021412","-0.1718874"
"0.02","2","-0.017","-0.051","-0.014","-0.8021412","0.0","0.9167328"
"0.02","2","0.018","-0.005","0.0","0.9740286","-0.1145916","1.6042824"
"0.03","3","0.024","-0.061","-0.023","1.0313244","-4.010706000000001","-1.2032118"
"0.03","3","0.026","0.013","-0.006","1.2032118","-3.8961144","4.1825934"
"0.03","3","-0.01","0.0","-0.003","0.1718874","-0.572958","0.0"
"0.03","3","0.01","0.019","0.003","0.8021412","-0.5156622","-0.1145916"
"0.03","3","-0.017","-0.049","-0.011","-0.1718874","-0.6875496","1.0313244"
"0.03","3","0.013","-0.007","0.003","1.2032118","0.0","1.4896908"
"0.04","4","0.031","-0.057","-0.018","-0.7448454","-3.7815228000000003","-1.6615782000000001"
"0.04","4","0.021","0.007","-0.003","-0.4010706","-3.5523396","4.1252976"
"0.04","4","-0.01","0.001","-0.003","0.2291832","-0.6302538","0.0"
"0.04","4","0.006","0.018","0.005","0.9740286","-0.1145916","-0.1145916"
"0.04","4","-0.013","-0.048","-0.007","0.0572958","-1.2605076","1.0313244"
"0.04","4","0.01","-0.004","0.005","0.9740286","0.2291832","1.4896908"
"0.05","5","0.03","-0.06","-0.016","-2.9793816","-3.4950438","-2.3491278"
"0.05","5","0.02","0.003","-0.005","-1.3178034","-3.4950438","4.068001799999999"
"0.05","5","-0.009","0.0","-0.003","0.2291832","-0.2291832","0.0"
"0.05","5","0.001","0.013","0.005","1.145916","0.0","-0.0572958"
"0.05","5","-0.008","-0.046","-0.013","0.2291832","-1.718874","0.9740286"
"0.05","5","0.008","-0.002","0.002","0.5156622","0.5156622","1.432395"
"0.06","6","0.024","-0.065","-0.008","-4.8701430000000006","-3.2085648","-2.6929026"
"0.06","6","0.025","0.009","-0.008","-2.3491278","-3.2085648","3.8961144"
"0.06","6","-0.008","0.0","-0.004","0.1145916","-0.286479","0.0572958"
"0.06","6","0.002","0.01","0.002","1.0886202","-0.0572958","-0.2291832"
"0.06","6","-0.001","-0.045","-0.019","0.4010706","-2.0053530000000004","1.0886202"
"0.06","6","0.007","-0.003","0.001","0.5156622","0.1718874","1.5469865999999999"
"0.07","7","0.022","-0.082","0.002","-5.5003968","-2.6929026","-3.151269"
"0.07","7","0.02","0.011","-0.01","-4.068001799999999","-2.86479","3.6669312"
"0.07","7","-0.01","0.0","-0.005","0.4010706","-0.1145916","0.0572958"
"0.07","7","0.009","0.016","0.001","0.9167328","-0.1145916","-0.286479"
"0.07","7","0.0","-0.042","-0.014","0.5156622","-2.1199445999999997","1.2605076"
"0.07","7","0.007","-0.004","-0.001","0.4583664","-0.3437748","1.6042824"
"0.08","8","0.017","-0.089","0.003","-4.1252976","-2.6356068","-2.9793816"
"0.08","8","0.01","0.0","-0.004","-5.443101","-2.7501984","3.5523396"
"0.08","8","-0.013","0.0","-0.005","0.1718874","-0.3437748","0.0"
"0.08","8","0.014","0.017","0.001","0.7448454","0.1718874","-0.3437748"
"0.08","8","-0.002","-0.042","-0.015","0.6875496","-2.0626488","1.432395"
"0.08","8","0.006","-0.003","-0.004","0.0","-0.4583664","1.3750992"
"0.09","9","0.014","-0.091","0.007","-2.578311","-2.5210152","-2.6356068"
"0.09","9","0.013","-0.007","0.0","-4.8128472","-3.0366774","3.6096354"
"0.09","9","-0.011","-0.008","-0.001","0.1145916","-0.4010706","-0.1145916"
"0.09","9","0.014","0.02","0.0","0.5156622","1.0313244","-0.2291832"
"0.09","9","-0.004","-0.042","-0.014","0.8021412","-1.9480572","1.3750992"
"0.09","9","0.009","-0.006","-0.002","0.2291832","-0.8021412","1.145916"
"0.1","10","0.023","-0.094","0.017","-1.3750992","-2.6929026","-2.1199445999999997"
"0.1","10","0.012","-0.012","-0.007","-2.8074942000000003","-3.437748","3.5523396"
"0.1","10","-0.01","-0.011","0.001","0.0","-0.4010706","-0.0572958"
"0.1","10","0.007","0.013","0.001","0.9167328","1.2032118","0.0"
"0.1","10","-0.008","-0.041","-0.011","0.859437","-1.7761698","1.0313244"
"0.1","10","0.013","0.0","0.0","0.1145916","-0.2291832","0.9740286"
"0.11","11","0.033","-0.093","0.02","-0.4010706","-2.1199445999999997","-1.6615782000000001"
"0.11","11","0.008","-0.009","-0.013","-0.7448454","-3.724227","3.3804521999999997"
"0.11","11","-0.011","-0.012","0.001","0.1145916","-0.5156622","0.0"
"0.11","11","0.006","0.016","0.007","0.859437","1.2605076","0.1718874"
"0.11","11","-0.007","-0.04","-0.011","0.8021412","-1.6615782000000001","0.4010706"
"0.11","11","0.014","0.004","0.001","-0.0572958","0.0572958","0.9167328"
"0.12","12","0.033","-0.091","0.015","0.0572958","-1.5469865999999999","-1.4896908"
"0.12","12","0.019","-0.007","-0.012","0.4583664","-3.6096354","3.3804521999999997"
"0.12","12","-0.009","-0.013","-0.002","0.2291832","-0.4583664","0.0"
"0.12","12","0.009","0.018","0.003","0.9740286","1.3750992","0.3437748"
"0.12","12","-0.005","-0.04","-0.011","0.7448454","-1.4896908","-0.0572958"
"0.12","12","0.015","0.004","0.0","0.1145916","-0.0572958","1.3178034"
"0.13","13","0.031","-0.09","0.009","0.1145916","-1.0886202","-1.432395"
"0.13","13","0.025","-0.006","-0.011","0.4010706","-3.151269","3.0366774"
"0.13","13","-0.012","-0.013","-0.003","0.2291832","-0.286479","-0.1145916"
"0.13","13","0.007","0.015","0.0","0.859437","2.5210152","0.4583664"
"0.13","13","-0.006","-0.04","-0.012","0.6302538","-1.2605076","-0.286479"
"0.13","13","0.015","0.004","0.0","0.286479","-0.0572958","1.718874"
"0.14","14","0.031","-0.091","0.01","0.0572958","-0.5156622","-1.718874"
"0.14","14","0.022","-0.007","-0.007","-0.286479","-2.5210152","2.5210152"
"0.14","14","-0.013","-0.007","-0.003","0.4010706","-0.4583664","0.0"
"0.14","14","-0.001","0.005","-0.004","0.8021412","2.9793816","0.2291832"
"0.14","14","-0.009","-0.04","-0.011","0.5156622","-1.145916","-0.2291832"
"0.14","14","0.01","0.003","0.0","0.3437748","-0.3437748","1.8334656"
"0.15","15","0.03","-0.082","0.01","-0.4010706","-0.1145916","-2.0626488"
"0.15","15","0.023","-0.013","-0.003","-0.9167328","-2.0626488","1.8334656"
"0.15","15","-0.007","-0.001","-0.004","0.572958","-0.8021412","-0.1145916"
"0.15","15","-0.007","-0.006","-0.004","0.9167328","2.2345362","0.0"
"0.15","15","-0.011","-0.04","-0.004","0.3437748","-1.0313244","0.0"
"0.15","15","0.005","0.002","0.0","0.3437748","-1.0313244","1.8907614000000001"
"0.16","16","0.032","-0.084","0.016","-2.6929026","0.4583664","-2.2345362"
"0.16","16","0.026","-0.017","0.0","-0.9167328","-1.6615782000000001","0.9740286"
"0.16","16","-0.002","0.002","-0.004","0.4583664","-0.6302538","-0.0572958"
"0.16","16","-0.005","-0.007","0.003","0.9167328","0.7448454","-0.1718874"
"0.16","16","-0.011","-0.04","-0.004","0.1145916","-1.0313244","0.3437748"
"0.16","16","0.003","0.002","0.0","0.3437748","-0.5156622","1.8334656"
"0.17","17","0.035","-0.095","0.018","-4.3544808","1.0886202","-2.1199445999999997"
"0.17","17","0.024","-0.016","-0.001","-0.7448454","-1.5469865999999999","0.1145916"
"0.17","17","-0.004","0.003","-0.002","0.4010706","-0.4583664","0.0"
"0.17","17","0.003","0.001","0.003","0.6302538","-0.2291832","-0.1718874"
"0.17","17","-0.012","-0.04","-0.009","0.0","-1.145916","0.6875496"
"0.17","17","0.007","0.002","0.0","0.4010706","-0.2291832","1.7761698"
"0.18","18","0.032","-0.101","0.011","-4.1252976","1.5469865999999999","-1.7761698"
"0.18","18","0.023","-0.006","-0.005","-1.3178034","-1.6042824","-0.286479"
"0.18","18","-0.004","0.003","-0.001","0.3437748","-0.286479","0.0"
"0.18","18","0.008","0.004","0.002","0.572958","-0.1718874","-0.0572958"
"0.18","18","-0.009","-0.038","-0.013","-0.1145916","-1.3178034","0.9167328"
"0.18","18","0.012","0.003","0.001","0.4583664","-0.572958","1.6615782000000001"
"0.19","19","0.033","-0.108","0.004","-2.0626488","1.4896908","-1.145916"
"0.19","19","0.03","0.002","-0.003","-2.8074942000000003","-1.432395","-0.4583664"
"0.19","19","-0.005","0.003","0.0","0.2291832","-0.2291832","0.0572958"
"0.19","19","0.007","0.004","-0.001","0.6302538","0.4010706","0.2291832"
"0.19","19","-0.004","-0.037","-0.018","-0.0572958","-1.4896908","1.0313244"
"0.19","19","0.016","0.002","0.0","0.286479","-0.6875496","1.4896908"
"0.2","20","0.031","-0.113","-0.002","1.432395","1.3178034","-0.8021412"
"0.2","20","0.034","0.002","0.0","-3.8961144","-1.432395","-0.2291832"
"0.2","20","-0.01","0.001","0.0","0.2291832","0.0","0.0"
"0.2","20","0.01","0.005","0.0","0.9167328","1.0886202","0.3437748"
"0.2","20","0.002","-0.036","-0.02","0.0572958","-1.5469865999999999","1.0886202"
"0.2","20","0.016","0.001","0.0","0.286479","-0.572958","1.145916"
"0.21","21","0.028","-0.105","-0.008","5.156622","0.9740286","-0.2291832"
"0.21","21","0.029","0.0","0.003","-4.5263682","-1.6615782000000001","-0.1145916"
"0.21","21","-0.013","-0.001","-0.001","0.2291832","0.1718874","0.0"
"0.21","21","0.008","0.005","0.0","1.145916","1.432395","0.286479"
"0.21","21","0.008","-0.035","-0.019","0.3437748","-1.4896908","1.145916"
"0.21","21","0.015","-0.002","-0.005","0.286479","-0.3437748","0.6875496"
"0.22","22","0.031","-0.087","-0.012","6.760904399999999","0.859437","0.0"
"0.22","22","0.017","0.003","0.0","-4.3544808","-2.1199445999999997","0.286479"
"0.22","22","-0.016","-0.003","-0.003","0.286479","0.1718874","-0.0572958"
"0.22","22","0.004","0.004","0.004","0.859437","1.5469865999999999","0.1718874"
"0.22","22","0.012","-0.035","-0.016","0.572958","-1.2605076","1.2032118"
"0.22","22","0.011","0.0","-0.008","0.4010706","0.0572958","0.3437748"
"0.23","23","0.025","-0.073","-0.01","5.156622","0.859437","0.2291832"
"0.23","23","0.014","-0.002","-0.008","-3.8388186","-2.578311","0.4583664"
"0.23","23","-0.015","-0.004","-0.004","0.3437748","0.0","-0.1145916"
"0.23","23","0.005","0.012","0.009","0.286479","2.1772404","0.0572958"
"0.23","23","0.012","-0.036","-0.005","0.6875496","-0.859437","1.3750992"
"0.23","23","0.009","0.0","-0.006","0.4010706","0.5156622","0.0572958"
"0.24","24","0.03","-0.062","-0.01","1.2605076","1.2605076","0.4010706"
"0.24","24","0.017","-0.008","-0.016","-2.578311","-3.151269","0.6302538"
"0.24","24","-0.013","-0.003","-0.003","0.4010706","0.0","-0.1145916"
"0.24","24","0.009","0.02","0.01","-0.1145916","2.2345362","0.1718874"
"0.24","24","0.009","-0.037","-0.001","0.7448454","-0.3437748","1.432395"
"0.24","24","0.007","-0.005","0.0","0.7448454","0.4010706","0.0"
"0.25","25","0.034","-0.065","-0.01","-4.010706000000001","1.9480572","0.6302538"
"0.25","25","0.023","-0.009","-0.022","-0.572958","-3.0366774","0.9167328"
"0.25","25","-0.013","0.0","0.0","0.4010706","-0.1145916","-0.1145916"
"0.25","25","0.011","0.024","0.007","-0.3437748","2.1772404","0.3437748"
"0.25","25","0.007","-0.036","-0.008","0.6875496","0.1145916","1.432395"
"0.25","25","0.006","-0.003","0.005","0.572958","0.4010706","0.1718874"
"0.26","26","0.033","-0.08","-0.015","-6.875496","2.1772404","0.572958"
"0.26","26","0.029","-0.008","-0.02","0.5156622","-2.8074942000000003","0.9167328"
"0.26","26","-0.01","0.001","0.0","0.4010706","-0.3437748","0.0"
"0.26","26","0.01","0.025","0.002","-0.286479","2.4637194","0.4583664"
"0.26","26","0.003","-0.037","-0.012","0.6302538","0.572958","1.3750992"
"0.26","26","0.008","0.002","0.006","0.2291832","-0.1145916","0.3437748"
"0.27","27","0.031","-0.088","-0.021","-6.2452422","2.1199445999999997","0.572958"
"0.27","27","0.039","-0.002","-0.019","0.5156622","-2.291832","0.7448454"
"0.27","27","-0.008","0.002","0.0","0.4010706","-0.286479","0.0"
"0.27","27","0.007","0.024","-0.001","-0.0572958","3.0939731999999998","0.6302538"
"0.27","27","0.0","-0.034","-0.011","0.6302538","0.9167328","1.3178034"
"0.27","27","0.008","0.005","0.0","-0.0572958","-0.3437748","0.3437748"
"0.28","28","0.029","-0.095","-0.027","-2.5210152","1.8907614000000001","0.6302538"
"0.28","28","0.047","-0.003","-0.024","-0.3437748","-1.3178034","0.1145916"
"0.28","28","-0.007","-0.002","-0.001","0.4010706","-0.1718874","0.0572958"
"0.28","28","-0.001","0.01","0.0","0.2291832","3.6096354","0.7448454"
"0.28","28","-0.001","-0.035","-0.018","0.6875496","1.0313244","1.3750992"
"0.28","28","0.006","0.003","-0.003","-0.0572958","-0.1145916","0.1145916"
"0.29","29","0.024","-0.095","-0.029","1.6615782000000001","1.2032118","0.859437"
"0.29","29","0.045","0.004","-0.026","-1.4896908","-0.4010706","-0.572958"
"0.29","29","-0.009","-0.003","-0.001","0.4010706","-0.1145916","0.0572958"
"0.29","29","-0.012","-0.003","0.002","0.286479","3.151269","0.7448454"
"0.29","29","-0.002","-0.033","-0.01","0.8021412","1.0886202","1.4896908"
"0.29","29","0.003","0.0","-0.004","0.3437748","0.0","-0.1718874"
"0.3","30","0.029","-0.082","-0.029","5.0420304","0.8021412","1.0313244"
"0.3","30","0.03","0.008","-0.013","-3.0366774","0.1145916","-0.9740286"
"0.3","30","-0.011","-0.003","0.0","0.2291832","-0.1145916","0.0"
"0.3","30","-0.019","-0.013","-0.001","0.2291832","2.6929026","0.572958"
"0.3","30","-0.003","-0.032","-0.007","0.9167328","0.9740286","1.5469865999999999"
"0.3","30","0.002","-0.002","-0.002","0.3437748","0.0","-0.5156622"
"0.31","31","0.034","-0.068","-0.032","5.9014674","0.572958","1.0886202"
"0.31","31","0.023","0.011","-0.01","-3.8388186","0.0","-0.8021412"
"0.31","31","-0.01","-0.005","-0.002","0.2291832","-0.4010706","0.0572958"
"0.31","31","-0.019","-0.016","-0.003","0.2291832","1.3178034","0.1718874"
"0.31","31","-0.001","-0.033","-0.009","0.859437","0.7448454","1.432395"
"0.31","31","0.003","0.0","0.0","0.4010706","-0.1718874","-0.5156622"
"0.32","32","0.034","-0.057","-0.035","4.1825934","0.5156622","1.2032118"
"0.32","32","0.021","0.003","-0.018","-2.1199445999999997","-0.4010706","0.0"
"0.32","32","-0.01","-0.006","0.0","0.286479","-0.4583664","0.1718874"
"0.32","32","-0.007","-0.01","-0.004","0.0","-0.3437748","0.0"
"0.32","32","0.002","-0.032","-0.004","0.8021412","0.4010706","1.3750992"
"0.32","32","0.008","0.003","0.005","0.2291832","-0.5156622","-0.4583664"
"0.33","33","0.033","-0.05","-0.036","1.2605076","0.5156622","1.3178034"
"0.33","33","0.008","-0.005","-0.022","1.5469865999999999","-1.2605076","0.9167328"
"0.33","33","-0.013","-0.005","0.0","0.2291832","-0.4583664","0.1718874"
"0.33","33","0.009","0.001","-0.003","0.0","-1.0313244","0.0"
"0.33","33","0.005","-0.033","-0.003","0.6875496","0.2291832","1.3750992"
"0.33","33","0.01","0.003","0.004","-0.4010706","-0.572958","-0.4583664"
"0.34","34","0.031","-0.057","-0.034","-1.6615782000000001","0.2291832","1.3750992"
"0.34","34","0.008","-0.004","-0.027","4.8128472","-2.0053530000000004","1.5469865999999999"
"0.34","34","-0.014","-0.003","0.0","0.2291832","-0.4583664","0.286479"
"0.34","34","0.022","0.018","-0.001","-0.286479","-0.9740286","0.286479"
"0.34","34","0.005","-0.034","-0.008","0.572958","0.0572958","1.3178034"
"0.34","34","0.01","-0.002","0.002","-0.6302538","-0.286479","-0.4583664"
"0.35000000000000003","35","0.025","-0.062","-0.033","-3.2658606","0.0572958","1.432395"
"0.35000000000000003","35","0.03","0.001","-0.039","5.9014674","-2.4064236","1.3750992"
"0.35000000000000003","35","-0.014","-0.002","0.0","0.2291832","-0.572958","0.3437748"
"0.35000000000000003","35","0.02","0.027","0.001","-0.4010706","-0.4010706","0.8021412"
"0.35000000000000003","35","0.003","-0.033","-0.012","0.4583664","-0.0572958","1.2032118"
"0.35000000000000003","35","0.01","-0.005","0.002","-0.286479","-0.286479","-0.4583664"
"0.36","36","0.022","-0.067","-0.031","-3.6096354","-0.286479","1.432395"
"0.36","36","0.053","0.012","-0.04","3.0939731999999998","-1.0886202","0.4583664"
"0.36","36","-0.015","-0.001","-0.002","0.286479","-0.4583664","0.4010706"
"0.36","36","0.005","0.033","0.002","-0.1145916","1.2605076","1.0886202"
"0.36","36","0.006","-0.033","-0.014","0.3437748","-0.1718874","0.9740286"
"0.36","36","0.005","-0.003","0.0","-0.286479","-0.5156622","-0.6875496"
"0.37","37","0.024","-0.069","-0.022","-2.7501984","-0.5156622","1.432395"
"0.37","37","0.045","0.025","-0.03","-1.7761698","0.572958","-0.3437748"
"0.37","37","-0.013","-0.002","-0.003","0.4010706","-0.6875496","0.4010706"
"0.37","37","-0.005","0.027","0.006","0.0","2.1199445999999997","1.2032118"
"0.37","37","0.011","-0.031","-0.016","0.3437748","-0.1718874","0.6875496"
"0.37","37","0.0","-0.001","-0.004","-0.6875496","-0.5156622","-0.9740286"
"0.38","38","0.024","-0.073","-0.019","-1.2605076","-0.859437","1.5469865999999999"
"0.38","38","0.031","0.029","-0.021","-7.161975","1.7761698","-0.8021412"
"0.38","38","-0.01","-0.001","-0.004","0.4583664","-0.8021412","0.4583664"
"0.38","38","-0.021","0.017","0.007","0.1145916","2.1772404","0.9740286"
"0.38","38","0.012","-0.031","-0.016","0.4583664","-0.1718874","0.4010706"
"0.38","38","-0.004","-0.003","-0.005","-0.3437748","-1.0313244","-1.3178034"
"0.39","39","0.019","-0.069","-0.016","0.3437748","-1.0313244","1.6042824"
"0.39","39","0.023","0.017","-0.017","-10.886202","2.7501984","-1.0313244"
"0.39","39","-0.005","0.001","-0.003","0.3437748","-1.0313244","0.572958"
"0.39","39","-0.025","0.01","0.006","0.0572958","1.5469865999999999","0.6302538"
"0.39","39","0.013","-0.028","-0.016","0.572958","0.0","0.2291832"
"0.39","39","-0.003","-0.002","-0.002","-0.1718874","-1.6615782000000001","-1.432395"
"0.4","40","0.023","-0.056","-0.01","0.6875496","-0.9167328","1.718874"
"0.4","40","0.015","0.002","-0.009","-10.0840608","2.86479","-0.1145916"
"0.4","40","-0.004","0.001","-0.001","0.3437748","-0.859437","0.6302538"
"0.4","40","-0.014","0.004","0.005","-0.0572958","0.4010706","0.4010706"
"0.4","40","0.013","-0.027","-0.013","0.8021412","0.2291832","0.0"
"0.4","40","0.0","-0.002","0.0","-0.286479","-1.8334656","-1.432395"
"0.41000000000000003","41","0.032","-0.049","-0.002","-1.2605076","-0.6875496","1.8334656"
"0.41000000000000003","41","0.0","-0.015","-0.002","-5.5576926","1.9480572","0.6302538"
"0.41000000000000003","41","-0.001","0.0","0.0","0.3437748","-0.859437","0.6302538"
"0.41000000000000003","41","-0.006","0.001","0.004","0.0572958","-0.1145916","0.3437748"
"0.41000000000000003","41","0.01","-0.028","-0.009","0.9740286","0.4583664","-0.1718874"
"0.41000000000000003","41","0.006","-0.001","0.002","-0.2291832","-1.718874","-1.2605076"
"0.42","42","0.033","-0.052","0.0","-2.86479","-0.4010706","1.7761698"
"0.42","42","0.0","-0.02","-0.011","0.6875496","0.1145916","1.2032118"
"0.42","42","-0.003","-0.003","0.0","0.4010706","-0.4583664","0.8021412"
"0.42","42","0.0","0.002","0.001","-0.1145916","-0.3437748","0.3437748"
"0.42","42","0.006","-0.027","-0.006","1.0886202","0.6302538","-0.4583664"
"0.42","42","0.014","0.001","0.002","-0.1718874","-0.6875496","-1.2032118"
"0.43","43","0.033","-0.051","0.0","-3.8388186","-0.1145916","1.6615782000000001"
"0.43","43","0.014","-0.019","-0.02","5.5576926","-0.9167328","1.4896908"
"0.43","43","-0.008","-0.006","0.0","0.1718874","0.0","0.8021412"
"0.43","43","0.007","0.002","0.0","-0.2291832","-1.0313244","0.5156622"
"0.43","43","0.001","-0.027","-0.004","1.0313244","0.8021412","-0.8021412"
"0.43","43","0.017","0.0","-0.001","-0.1145916","0.2291832","-1.2605076"
"0.44","44","0.03","-0.053","0.0","-4.1252976","-0.0572958","1.145916"
"0.44","44","0.028","-0.012","-0.021","8.3651868","-1.2032118","1.145916"
"0.44","44","-0.007","-0.008","-0.002","0.1718874","0.3437748","0.6302538"
"0.44","44","0.008","0.004","0.0","-0.2291832","-1.2032118","0.8021412"
"0.44","44","-0.001","-0.028","-0.004","0.859437","0.859437","-1.2032118"
"0.44","44","0.015","0.002","-0.005","0.2291832","0.6875496","-1.6042824"
"0.45","45","0.03","-0.063","0.0","-2.9793816","0.0","0.7448454"
"0.45","45","0.032","0.005","-0.023","8.021412000000002","-0.4583664","0.572958"
"0.45","45","-0.007","-0.009","-0.003","0.3437748","0.3437748","0.6875496"
"0.45","45","0.007","0.007","0.001","-0.1145916","-1.145916","0.9740286"
"0.45","45","-0.003","-0.028","-0.002","0.572958","0.859437","-1.6615782000000001"
"0.45","45","0.008","0.004","-0.005","0.7448454","1.2032118","-1.8907614000000001"
"0.46","46","0.029","-0.065","0.001","-0.6875496","0.1145916","0.2291832"
"0.46","46","0.027","0.019","-0.023","4.583664","0.5156622","0.0572958"
"0.46","46","-0.007","-0.006","-0.003","0.286479","0.4010706","0.7448454"
"0.46","46","0.001","0.007","0.002","-0.1145916","-1.0313244","0.9167328"
"0.46","46","-0.002","-0.03","-0.005","0.2291832","0.8021412","-2.0626488"
"0.46","46","0.005","0.002","-0.003","0.859437","1.4896908","-2.2345362"
"0.47000000000000003","47","0.029","-0.059","0.002","0.9740286","0.1718874","-0.286479"
"0.47000000000000003","47","0.022","0.018","-0.024","-0.286479","1.4896908","-0.2291832"
"0.47000000000000003","47","-0.003","-0.002","-0.001","0.3437748","0.3437748","0.8021412"
"0.47000000000000003","47","-0.003","0.005","0.003","0.1145916","-1.0886202","0.7448454"
"0.47000000000000003","47","-0.002","-0.028","-0.01","-0.0572958","0.7448454","-2.3491278"
"0.47000000000000003","47","0.002","0.002","-0.001","1.0313244","0.859437","-2.5210152"
"0.48","48","0.025","-0.058","0.006","1.3750992","0.5156622","-0.8021412"
"0.48","48","0.019","0.007","-0.025","-3.2085648","2.578311","-0.1145916"
"0.48","48","0.0","0.001","0.0","0.4583664","0.4010706","0.9167328"
"0.48","48","-0.006","0.01","0.003","0.0","-1.0886202","0.572958"
"0.48","48","-0.003","-0.029","-0.012","-0.286479","0.6875496","-2.6356068"
"0.48","48","0.004","0.003","0.002","0.8021412","0.2291832","-2.578311"
"0.49","49","0.024","-0.059","0.006","1.2032118","0.9167328","-0.9740286"
"0.49","49","0.015","-0.008","-0.021","-3.151269","2.7501984","-0.0572958"
"0.49","49","0.0","0.004","0.0","0.4583664","0.4583664","1.0886202"
"0.49","49","-0.008","0.01","0.004","-0.1718874","-1.2605076","0.4583664"
"0.49","49","-0.004","-0.031","-0.014","-0.4010706","0.6302538","-2.86479"
"0.49","49","0.007","0.0","0.004","0.5156622","0.0","-2.5210152"
"0.5","50","0.026","-0.051","0.007","-0.3437748","1.6615782000000001","-1.2032118"
"0.5","50","0.009","-0.014","-0.022","-0.6875496","2.5210152","-0.286479"
"0.5","50","-0.001","0.006","-0.001","0.5156622","0.6302538","1.145916"
"0.5","50","-0.004","0.008","0.003","-0.1145916","-1.718874","0.4010706"
"0.5","50","-0.006","-0.031","-0.012","-0.4010706","0.572958","-3.0366774"
"0.5","50","0.01","-0.003","0.003","0.286479","-0.1145916","-2.1772404"
"0.51","51","0.025","-0.057","0.009","-2.2345362","2.2345362","-1.2605076"
"0.51","51","0.014","-0.006","-0.022","1.145916","2.3491278","-0.286479"
"0.51","51","-0.003","0.004","0.0","0.5156622","1.145916","1.2032118"
"0.51","51","0.006","0.013","0.002","-0.286479","-1.9480572","0.4010706"
"0.51","51","-0.009","-0.032","-0.011","-0.4010706","0.5156622","-3.2658606"
"0.51","51","0.01","-0.003","-0.001","0.2291832","0.286479","-2.1199445999999997"
"0.52","52","0.027","-0.061","0.01","-3.437748","2.5210152","-1.432395"
"0.52","52","0.021","-0.003","-0.013","2.1772404","2.3491278","-0.4010706"
"0.52","52","-0.007","0.0","-0.003","0.4583664","1.2032118","1.145916"
"0.52","52","0.012","0.021","0.002","-0.5156622","-1.718874","0.4583664"
"0.52","52","-0.011","-0.033","-0.009","-0.3437748","0.4010706","-3.4950438"
"0.52","52","0.01","-0.001","-0.004","0.6875496","1.145916","-2.1772404"
"0.53","53","0.029","-0.062","0.004","-3.9534102000000004","3.3231564000000002","-1.432395"
"0.53","53","0.029","0.001","-0.01","2.9220857999999996","2.578311","-0.6302538"
"0.53","53","-0.01","-0.006","-0.002","0.6302538","1.145916","0.9167328"
"0.53","53","0.014","0.021","0.003","-0.5156622","-1.145916","0.6302538"
"0.53","53","-0.012","-0.033","-0.01","-0.3437748","0.3437748","-3.6669312"
"0.53","53","0.007","0.001","-0.005","0.9740286","1.3750992","-2.291832"
"0.54","54","0.027","-0.074","-0.001","-3.3231564000000002","3.5523396","-1.4896908"
"0.54","54","0.027","0.0","-0.01","2.9793816","2.9220857999999996","-0.6302538"
"0.54","54","-0.014","-0.006","-0.001","0.5156622","0.6302538","0.8021412"
"0.54","54","0.012","0.021","0.001","-0.7448454","-1.0313244","0.6302538"
"0.54","54","-0.013","-0.034","-0.012","-0.3437748","0.1718874","-3.7815228000000003"
"0.54","54","0.006","0.001","-0.007","0.8021412","1.2605076","-2.4064236"
"0.55","55","0.026","-0.082","-0.008","-1.2032118","3.724227","-1.432395"
"0.55","55","0.018","0.002","-0.008","2.1199445999999997","3.3231564000000002","-1.0313244"
"0.55","55","-0.012","-0.007","0.0","0.5156622","0.0","0.7448454"
"0.55","55","0.007","0.016","-0.001","-0.5156622","-0.7448454","0.7448454"
"0.55","55","-0.012","-0.034","-0.014","-0.3437748","0.0","-3.7815228000000003"
"0.55","55","0.005","0.001","-0.006","0.6302538","0.9167328","-2.5210152"
"0.56","56","0.02","-0.077","-0.015","1.432395","3.6096354","-1.2605076"
"0.56","56","0.017","0.003","-0.007","1.432395","3.3804521999999997","-1.0313244"
"0.56","56","-0.007","-0.005","0.0","0.4010706","-0.3437748","0.6875496"
"0.56","56","0.002","0.009","0.0","-0.2291832","-0.7448454","0.7448454"
"0.56","56","-0.009","-0.033","-0.013","-0.286479","-0.1145916","-3.6669312"
"0.56","56","0.006","-0.002","-0.003","0.7448454","0.0","-2.4637194"
"0.5700000000000001","57","0.025","-0.071","-0.019","3.2658606","3.437748","-1.145916"
"0.5700000000000001","57","0.019","0.004","-0.005","0.4583664","3.3231564000000002","-1.2032118"
"0.5700000000000001","57","-0.002","-0.001","0.0","0.4583664","-0.6875496","0.7448454"
"0.5700000000000001","57","-0.002","0.0","0.001","-0.0572958","-0.9740286","0.7448454"
"0.5700000000000001","57","-0.011","-0.034","-0.01","-0.2291832","-0.1718874","-3.437748"
"0.5700000000000001","57","0.007","-0.002","0.001","1.0313244","-0.1145916","-2.4064236"
"0.58","58","0.028","-0.071","-0.023","3.6669312","3.0939731999999998","-1.145916"
"0.58","58","0.021","0.003","-0.005","0.0","3.2658606","-0.9167328"
"0.58","58","0.001","0.005","0.001","0.4010706","-0.4583664","0.859437"
"0.58","58","-0.003","-0.009","0.001","0.0","-1.145916","0.572958"
"0.58","58","-0.013","-0.032","-0.009","-0.1718874","-0.2291832","-3.2085648"
"0.58","58","0.007","-0.002","0.004","1.0886202","0.0","-2.2345362"
"0.59","59","0.026","-0.058","-0.019","2.5210152","2.86479","-1.145916"
"0.59","59","0.015","0.003","0.0","-0.1145916","3.2085648","-0.6302538"
"0.59","59","0.003","0.009","0.0","0.5156622","-0.2291832","0.859437"
"0.59","59","-0.002","-0.01","0.0","-0.0572958","-1.2605076","0.4010706"
"0.59","59","-0.014","-0.031","-0.009","-0.1145916","-0.286479","-2.9793816"
"0.59","59","0.009","0.0","0.003","0.859437","0.0","-2.1199445999999997"
"0.6","60","0.026","-0.055","-0.017","-0.1145916","2.9220857999999996","-1.0886202"
"0.6","60","0.014","0.0","0.002","0.1718874","3.2658606","-0.5156622"
"0.6","60","0.002","0.011","0.0","0.4583664","0.0","0.9167328"
"0.6","60","-0.001","-0.012","-0.001","-0.1145916","-1.7761698","0.2291832"
"0.6","60","-0.012","-0.031","-0.013","-0.0572958","-0.2291832","-2.7501984"
"0.6","60","0.01","0.0","-0.001","0.7448454","0.1145916","-1.9480572"
"0.61","61","0.024","-0.057","-0.021","-2.291832","2.9220857999999996","-1.145916"
"0.61","61","0.018","0.003","0.006","0.1718874","3.151269","-0.4010706"
"0.61","61","-0.001","0.011","0.0","0.572958","0.1718874","0.9740286"
"0.61","61","0.005","-0.008","-0.003","-0.2291832","-2.2345362","0.286479"
"0.61","61","-0.008","-0.032","-0.011","0.0","-0.2291832","-2.4637194"
"0.61","61","0.014","0.001","-0.003","1.145916","0.6302538","-1.9480572"
"0.62","62","0.018","-0.062","-0.027","-3.6669312","2.86479","-1.2032118"
"0.62","62","0.015","0.006","0.008","0.1145916","2.6356068","-0.2291832"
"0.62","62","-0.001","0.01","-0.001","0.4583664","0.2291832","0.859437"
"0.62","62","0.013","0.0","-0.001","-0.286479","-2.0626488","0.4010706"
"0.62","62","-0.009","-0.028","-0.006","0.0","-0.1145916","-2.0053530000000004"
"0.62","62","0.015","0.005","-0.001","1.145916","1.0313244","-2.4637194"
"0.63","63","0.023","-0.063","-0.028","-3.6669312","2.6356068","-1.2032118"
"0.63","63","0.01","0.005","0.008","0.572958","2.291832","0.0"
"0.63","63","-0.003","0.002","-0.003","0.4010706","0.5156622","0.8021412"
"0.63","63","0.015","0.003","0.003","-0.1145916","-1.4896908","0.4010706"
"0.63","63","-0.016","-0.035","-0.013","0.0","0.0","-1.6615782000000001"
"0.63","63","0.011","0.006","-0.002","1.0886202","1.2605076","-3.0939731999999998"
"0.64","64","0.037","-0.071","-0.029","-2.3491278","2.4064236","-1.2032118"
"0.64","64","0.012","-0.004","0.005","2.4637194","0.859437","0.5156622"
"0.64","64","-0.005","-0.007","-0.005","0.4010706","0.5156622","0.6302538"
"0.64","64","0.011","0.0","0.002","0.0","-0.9167328","0.6302538"
"0.64","64","-0.023","-0.036","-0.002","0.0","0.0","-1.5469865999999999"
"0.64","64","0.004","0.01","-0.003","1.2605076","1.145916","-3.6096354"
"0.65","65","0.044","-0.078","-0.029","0.3437748","2.291832","-1.3178034"
"0.65","65","0.023","-0.001","-0.001","4.8128472","0.286479","0.9740286"
"0.65","65","-0.009","-0.012","-0.001","0.2291832","0.1718874","0.572958"
"0.65","65","0.009","0.002","-0.003","0.2291832","-0.6875496","0.7448454"
"0.65","65","-0.026","-0.035","0.0","-0.0572958","0.0","-1.6615782000000001"
"0.65","65","0.001","0.014","-0.001","1.3750992","0.9740286","-3.4950438"
"0.66","66","0.046","-0.075","-0.025","3.7815228000000003","1.8907614000000001","-1.6042824"
"0.66","66","0.041","0.014","-0.004","5.5576926","0.572958","1.0313244"
"0.66","66","-0.008","-0.016","0.001","0.0572958","0.0","0.4583664"
"0.66","66","0.01","0.011","-0.004","0.286479","0.0572958","0.9167328"
"0.66","66","-0.023","-0.038","-0.007","-0.286479","0.0","-1.8334656"
"0.66","66","0.002","0.011","0.0","1.2605076","-0.5156622","-3.0366774"
"0.67","67","0.039","-0.067","-0.019","4.6409598","2.2345362","-1.7761698"
"0.67","67","0.047","0.041","0.006","0.5156622","2.0626488","0.0572958"
"0.67","67","-0.011","-0.018","0.002","0.0572958","-0.1718874","0.4010706"
"0.67","67","0.003","0.017","-0.006","0.0572958","1.145916","0.9167328"
"0.67","67","-0.016","-0.038","-0.018","-0.4583664","0.0572958","-1.7761698"
"0.67","67","0.002","0.007","0.0","1.0313244","-1.9480572","-1.8334656"
"0.68","68","0.03","-0.059","-0.007","3.151269","2.578311","-1.8907614000000001"
"0.68","68","0.04","0.05","0.014","-6.302538","3.7815228000000003","-0.4010706"
"0.68","68","-0.012","-0.013","0.003","0.0572958","-0.859437","0.3437748"
"0.68","68","-0.005","0.011","-0.005","0.0","1.2032118","0.7448454"
"0.68","68","-0.011","-0.041","-0.018","-0.4010706","0.1718874","-1.3178034"
"0.68","68","0.004","0.004","-0.001","1.2032118","-2.8074942000000003","-0.7448454"
"0.6900000000000001","69","0.035","-0.062","-0.008","0.8021412","3.2658606","-1.8907614000000001"
"0.6900000000000001","69","0.024","0.026","0.023","-12.4904844","4.9847345999999995","-1.0313244"
"0.6900000000000001","69","-0.012","-0.004","0.003","0.0","-1.2605076","0.3437748"
"0.6900000000000001","69","-0.006","0.017","0.004","-0.2291832","1.0886202","0.6302538"
"0.6900000000000001","69","-0.003","-0.042","-0.001","-0.286479","0.4010706","-0.4583664"
"0.6900000000000001","69","0.01","0.01","-0.001","2.0626488","-2.578311","-0.286479"
"0.7000000000000001","70","0.027","-0.069","-0.017","-0.572958","3.6669312","-1.9480572"
"0.7000000000000001","70","0.016","-0.006","0.031","-12.089413799999999","5.0993262","-1.2605076"
"0.7000000000000001","70","-0.012","0.0","0.002","0.0","-1.6615782000000001","0.3437748"
"0.7000000000000001","70","-0.001","0.0","0.007","0.0572958","-0.1145916","0.6302538"
"0.7000000000000001","70","0.0","-0.041","-0.005","-0.1718874","0.8021412","0.6302538"
"0.7000000000000001","70","0.015","0.008","0.001","2.6929026","-2.578311","-0.4010706"
"0.71","71","0.026","-0.076","-0.025","-0.1718874","3.7815228000000003","-2.0053530000000004"
"0.71","71","0.015","-0.023","0.035","-6.1306506","4.1825934","-1.2032118"
"0.71","71","-0.009","0.008","0.0","0.1718874","-2.3491278","0.5156622"
"0.71","71","0.005","0.0","0.002","0.0","-0.9740286","0.7448454"
"0.71","71","0.001","-0.042","-0.016","0.0","1.2032118","1.8907614000000001"
"0.71","71","0.016","0.002","0.003","2.6929026","-2.5210152","-0.5156622"
"0.72","72","0.027","-0.082","-0.033","2.0626488","3.5523396","-2.0626488"
"0.72","72","0.007","-0.016","0.031","2.291832","2.6356068","-0.859437"
"0.72","72","-0.005","0.021","-0.002","0.0","-2.578311","0.5156622"
"0.72","72","0.015","0.007","0.0","0.0572958","0.286479","0.9167328"
"0.72","72","-0.001","-0.038","-0.023","0.4583664","1.718874","3.151269"
"0.72","72","0.014","0.0","0.001","2.578311","-2.578311","-0.7448454"
"0.73","73","0.022","-0.08","-0.039","4.6982556","3.0939731999999998","-2.0626488"
"0.73","73","0.005","0.009","0.028","7.0473834","1.4896908","-0.286479"
"0.73","73","0.0","0.026","-0.001","0.0572958","-2.3491278","0.572958"
"0.73","73","0.015","0.01","0.002","0.1145916","1.8334656","0.9740286"
"0.73","73","-0.004","-0.037","-0.027","1.0886202","2.1199445999999997","4.1252976"
"0.73","73","0.014","-0.001","0.0","2.6929026","-2.7501984","-0.6875496"
"0.74","74","0.014","-0.07","-0.036","5.844171599999999","2.578311","-1.8334656"
"0.74","74","0.013","0.023","0.014","6.4744254","0.859437","-0.0572958"
"0.74","74","-0.001","0.025","0.0","-0.286479","-2.578311","0.4010706"
"0.74","74","0.008","0.008","0.0","0.0572958","2.6929026","1.0886202"
"0.74","74","-0.004","-0.033","-0.026","1.8334656","2.291832","4.6982556"
"0.74","74","0.016","-0.005","-0.001","2.8074942000000003","-2.6356068","-0.9167328"
"0.75","75","0.014","-0.055","-0.024","3.8388186","1.8907614000000001","-1.432395"
"0.75","75","0.02","0.037","0.012","-0.4583664","0.9740286","-0.859437"
"0.75","75","0.0","0.02","0.0","-0.4010706","-2.7501984","0.4010706"
"0.75","75","0.004","0.016","0.0","-0.572958","2.6929026","0.9740286"
"0.75","75","-0.001","-0.03","-0.025","2.6929026","2.3491278","4.9847345999999995"
"0.75","75","0.021","-0.008","-0.002","2.9793816","-1.8907614000000001","-1.145916"
"0.76","76","0.015","-0.05","-0.015","0.0","2.1199445999999997","-1.0886202"
"0.76","76","0.011","0.03","0.009","-7.7922288","1.3178034","-1.2032118"
"0.76","76","0.003","0.017","0.0","-0.286479","-2.5210152","0.4583664"
"0.76","76","0.003","0.024","0.004","-0.7448454","2.8074942000000003","0.8021412"
"0.76","76","0.0","-0.027","-0.016","3.4950438","2.2345362","4.9847345999999995"
"0.76","76","0.021","-0.01","-0.003","2.9220857999999996","-0.9167328","-1.4896908"
"0.77","77","0.008","-0.061","-0.012","-3.9534102000000004","2.2345362","-0.6875496"
"0.77","77","0.01","0.03","0.003","-14.610429","1.7761698","-1.8334656"
"0.77","77","0.006","0.012","0.002","-0.2291832","-2.1772404","0.572958"
"0.77","77","0.009","0.028","0.007","-0.7448454","2.4637194","0.4583664"
"0.77","77","0.0","-0.023","-0.008","4.068001799999999","2.1199445999999997","4.8128472"
"0.77","77","0.017","-0.009","-0.002","3.151269","-0.1145916","-1.718874"
"0.78","78","0.007","-0.07","-0.017","-5.6722842","2.4064236","-0.0572958"
"0.78","78","0.002","0.015","0.003","-20.6837838","1.9480572","-2.4637194"
"0.78","78","0.006","0.008","0.004","-0.3437748","-1.6042824","0.572958"
"0.78","78","0.019","0.028","0.011","-0.7448454","1.8334656","0.3437748"
"0.78","78","0.0","-0.021","-0.004","4.4690724","1.8907614000000001","4.4117766"
"0.78","78","0.013","-0.008","0.0","3.151269","0.4583664","-1.8334656"
"0.79","79","0.006","-0.08","-0.019","-4.297185","2.1772404","0.286479"
"0.79","79","-0.002","-0.002","0.007","-22.861024200000003","1.718874","-2.86479"
"0.79","79","0.006","0.003","0.004","-0.3437748","-0.9167328","0.4583664"
"0.79","79","0.028","0.028","0.013","-1.3178034","1.8334656","0.6875496"
"0.79","79","0.0","-0.017","0.0","4.6409598","1.6042824","3.8961144"
"0.79","79","0.009","-0.009","0.003","3.0939731999999998","0.2291832","-1.718874"
"0.8","80","0.007","-0.083","-0.022","-0.572958","1.8334656","0.572958"
"0.8","80","-0.008","-0.027","0.004","-20.1681216","0.9740286","-3.151269"
"0.8","80","0.005","-0.001","0.001","-0.1718874","-0.3437748","0.2291832"
"0.8","80","0.03","0.027","0.008","-1.432395","2.0053530000000004","0.9740286"
"0.8","80","-0.003","-0.014","-0.003","4.583664","1.3178034","3.151269"
"0.8","80","0.004","-0.008","0.005","2.86479","-0.1718874","-1.5469865999999999"
"0.81","81","0.008","-0.075","-0.023","2.9220857999999996","1.4896908","0.7448454"
"0.81","81","-0.005","-0.05","-0.009","-14.3812458","-0.1718874","-3.8388186"
"0.81","81","0.008","0.0","0.0","-0.286479","0.0","0.1718874"
"0.81","81","0.021","0.025","0.005","-1.5469865999999999","2.9220857999999996","1.0313244"
"0.81","81","-0.005","-0.014","-0.003","4.4117766","0.859437","2.291832"
"0.81","81","0.003","-0.007","0.004","2.4637194","-0.1718874","-1.0886202"
"0.8200000000000001","82","0.006","-0.061","-0.02","4.6982556","1.3178034","0.6875496"
"0.8200000000000001","82","0.007","-0.029","-0.021","-8.9381448","-0.6302538","-4.068001799999999"
"0.8200000000000001","82","0.011","0.0","-0.001","-0.3437748","0.3437748","0.2291832"
"0.8200000000000001","82","0.005","0.015","0.0","-1.6042824","3.9534102000000004","0.9167328"
"0.8200000000000001","82","-0.005","-0.012","0.001","4.1825934","0.5156622","1.5469865999999999"
"0.8200000000000001","82","0.003","-0.003","0.0","1.6042824","-0.2291832","-0.859437"
"0.8300000000000001","83","0.007","-0.046","-0.016","3.9534102000000004","1.4896908","0.4010706"
"0.8300000000000001","83","0.012","0.016","-0.042","-10.0840608","-0.9167328","-5.156622"
"0.8300000000000001","83","0.01","-0.002","-0.002","-0.4583664","0.7448454","0.0"
"0.8300000000000001","83","-0.003","0.008","-0.005","-1.5469865999999999","4.297185","0.6302538"
"0.8300000000000001","83","-0.008","-0.014","-0.004","3.8388186","0.1145916","0.8021412"
"0.8300000000000001","83","0.006","0.002","-0.008","0.8021412","0.572958","-0.7448454"
"0.84","84","0.008","-0.042","-0.013","0.9740286","1.7761698","-0.2291832"
"0.84","84","0.008","0.053","-0.058","-18.8503182","-0.9167328","-6.3598338"
"0.84","84","0.01","-0.003","-0.004","-0.6875496","1.2032118","0.0"
"0.84","84","-0.009","0.007","-0.002","-1.5469865999999999","3.6096354","0.3437748"
"0.84","84","-0.013","-0.013","-0.004","3.437748","-0.2291832","0.0572958"
"0.84","84","0.009","0.006","-0.011","0.9740286","1.6615782000000001","-0.9167328"
"0.85","85","0.01","-0.045","-0.012","-1.3750992","1.9480572","-0.8021412"
"0.85","85","0.02","0.039","-0.079","-27.731167199999998","0.3437748","-6.3598338"
"0.85","85","0.007","-0.003","-0.007","-0.5156622","1.2605076","0.0572958"
"0.85","85","-0.015","-0.002","-0.003","-1.3750992","3.2658606","0.1718874"
"0.85","85","-0.017","-0.014","-0.003","2.9793816","-0.6302538","-0.8021412"
"0.85","85","0.013","0.006","-0.012","1.2605076","2.5210152","-1.0886202"
"0.86","86","0.014","-0.049","-0.014","-2.9220857999999996","2.4064236","-1.3750992"
"0.86","86","0.008","0.02","-0.038","-36.382833","0.4583664","-8.136003599999999"
"0.86","86","0.003","0.001","-0.008","-0.4010706","1.3178034","0.0572958"
"0.86","86","-0.007","-0.008","-0.004","-0.9740286","2.6929026","0.0"
"0.86","86","-0.017","-0.016","0.001","2.4637194","-1.0886202","-1.6615782000000001"
"0.86","86","0.014","0.007","-0.005","1.6042824","2.7501984","-1.145916"
"0.87","87","0.016","-0.059","-0.022","-2.9220857999999996","2.6356068","-1.7761698"
"0.87","87","-0.001","-0.013","-0.002","-40.737313799999995","-0.5156622","-8.9954406"
"0.87","87","0.0","0.0","-0.004","-0.5156622","1.4896908","0.0"
"0.87","87","0.0","-0.01","-0.003","-0.7448454","2.1199445999999997","0.0"
"0.87","87","-0.013","-0.016","0.003","1.8907614000000001","-1.6042824","-2.3491278"
"0.87","87","0.012","0.007","-0.001","1.7761698","2.4637194","-0.9167328"
"0.88","88","0.015","-0.064","-0.031","-1.0886202","2.6356068","-1.8334656"
"0.88","88","-0.016","0.005","0.022","-39.7632852","-2.1772404","-8.9381448"
"0.88","88","-0.004","-0.001","-0.001","-0.5156622","1.5469865999999999","-0.1145916"
"0.88","88","0.006","-0.01","0.0","-0.859437","1.9480572","0.0"
"0.88","88","-0.013","-0.017","0.005","1.3750992","-1.9480572","-2.6356068"
"0.88","88","0.007","0.005","0.006","2.0053530000000004","2.1199445999999997","-0.6302538"
"0.89","89","0.012","-0.067","-0.038","1.2032118","2.291832","-1.8907614000000001"
"0.89","89","-0.008","0.029","0.04","-36.4974246","-3.0939731999999998","-6.6463128000000005"
"0.89","89","-0.006","-0.007","0.003","-0.4583664","1.5469865999999999","-0.286479"
"0.89","89","0.009","-0.003","0.0","-1.2605076","1.8334656","-0.1145916"
"0.89","89","-0.014","-0.017","0.005","0.859437","-2.1199445999999997","-2.8074942000000003"
"0.89","89","0.0","0.004","0.007","1.8907614000000001","1.718874","-0.2291832"
"0.9","90","0.012","-0.062","-0.044","3.5523396","2.1199445999999997","-1.6615782000000001"
"0.9","90","0.003","0.038","0.035","-37.7579322","-2.9220857999999996","-5.5576926"
"0.9","90","-0.008","-0.015","0.002","-0.5156622","1.2032118","-0.4010706"
"0.9","90","0.01","0.003","0.002","-1.6042824","1.145916","-0.1718874"
"0.9","90","-0.015","-0.019","-0.001","0.4010706","-2.291832","-2.9220857999999996"
"0.9","90","0.002","0.001","0.003","1.7761698","0.859437","-0.1145916"
"0.91","91","0.015","-0.055","-0.042","4.297185","1.6615782000000001","-1.6615782000000001"
"0.91","91","0.018","0.039","0.038","-37.0703826","-2.1199445999999997","-3.2658606"
"0.91","91","-0.013","-0.019","0.003","-0.572958","0.9167328","-0.6302538"
"0.91","91","0.007","0.002","0.002","-1.5469865999999999","1.0886202","-0.1718874"
"0.91","91","-0.018","-0.02","-0.009","0.1145916","-2.3491278","-2.9220857999999996"
"0.91","91","0.0","0.0","-0.001","1.9480572","0.1718874","-0.1718874"
"0.92","92","0.022","-0.056","-0.038","3.6669312","1.3750992","-1.8334656"
"0.92","92","0.016","0.0","0.045","-33.804522","-0.9740286","-2.0053530000000004"
"0.92","92","-0.016","-0.017","0.001","-0.4583664","-0.0572958","-0.572958"
"0.92","92","0.003","-0.002","-0.002","-1.145916","0.9740286","-0.2291832"
"0.92","92","-0.019","-0.021","-0.018","0.1145916","-2.4064236","-2.86479"
"0.92","92","-0.001","0.003","-0.005","2.0626488","-0.4010706","0.0"
"0.93","93","0.018","-0.051","-0.04","1.432395","1.145916","-1.9480572"
"0.93","93","0.009","-0.012","0.035","-29.564632800000002","-0.3437748","-1.3750992"
"0.93","93","-0.007","-0.015","-0.001","-0.572958","-0.7448454","-0.5156622"
"0.93","93","-0.001","-0.005","-0.006","-0.8021412","0.6302538","-0.2291832"
"0.93","93","-0.019","-0.023","-0.022","0.286479","-2.4637194","-2.86479"
"0.93","93","0.0","0.004","-0.006","2.0053530000000004","-0.286479","0.0572958"
"0.9400000000000001","94","0.017","-0.049","-0.033","-1.4896908","1.145916","-2.0626488"
"0.9400000000000001","94","0.014","-0.006","0.015","-25.0382646","-0.0572958","-0.0572958"
"0.9400000000000001","94","-0.001","-0.012","-0.003","-0.7448454","-1.0886202","-0.2291832"
"0.9400000000000001","94","-0.006","-0.005","-0.007","-0.4010706","0.0","-0.3437748"
"0.9400000000000001","94","-0.017","-0.024","-0.015","0.6302538","-2.4637194","-2.7501984"
"0.9400000000000001","94","0.004","0.002","-0.003","2.2345362","-0.6302538","0.0"
"0.9500000000000001","95","0.02","-0.058","-0.027","-3.3231564000000002","1.0313244","-2.0626488"
"0.9500000000000001","95","0.02","-0.012","-0.007","-23.491277999999998","0.5156622","0.4010706"
"0.9500000000000001","95","0.0","-0.003","-0.005","-0.572958","-1.145916","-0.1718874"
"0.9500000000000001","95","-0.01","-0.011","-0.005","-0.1718874","-0.6302538","-0.5156622"
"0.9500000000000001","95","-0.013","-0.023","-0.007","0.9740286","-2.4637194","-2.578311"
"0.9500000000000001","95","0.005","-0.002","0.0","2.1199445999999997","-0.7448454","0.0572958"
"0.96","96","0.018","-0.068","-0.029","-3.0366774","0.859437","-2.0053530000000004"
"0.96","96","0.029","-0.016","-0.014","-23.6058696","1.3750992","0.5156622"
"0.96","96","0.0","0.004","-0.003","-0.4583664","-0.859437","-0.1145916"
"0.96","96","-0.008","-0.009","-0.002","-0.286479","-0.6875496","-0.6302538"
"0.96","96","-0.009","-0.023","-0.003","1.3178034","-2.4064236","-2.2345362"
"0.96","96","0.006","-0.003","0.005","1.8334656","-0.4010706","0.1145916"
"0.97","97","0.021","-0.071","-0.032","-1.2605076","0.572958","-1.7761698"
"0.97","97","0.02","-0.01","0.008","-22.8037284","1.6615782000000001","-0.0572958"
"0.97","97","-0.001","0.01","-0.001","-0.572958","-0.9167328","-0.0572958"
"0.97","97","-0.005","-0.005","0.0","-0.286479","-0.8021412","-0.5156622"
"0.97","97","-0.009","-0.02","0.0","1.4896908","-2.291832","-1.718874"
"0.97","97","0.003","-0.003","0.01","1.8334656","0.0572958","0.3437748"
"0.98","98","0.021","-0.074","-0.034","0.9167328","0.2291832","-1.432395"
"0.98","98","0.004","0.04","0.055","-21.2567418","1.6042824","0.2291832"
"0.98","98","0.0","0.014","-0.002","-0.572958","-0.5156622","-0.1145916"
"0.98","98","-0.004","0.003","0.002","-0.3437748","-0.7448454","-0.572958"
"0.98","98","-0.01","-0.019","-0.001","1.6042824","-2.0626488","-1.145916"
"0.98","98","0.0","-0.002","0.011","1.2605076","0.7448454","0.572958"
"0.99","99","0.019","-0.07","-0.034","3.2085648","-0.3437748","-1.0313244"
"0.99","99","-0.014","0.099","0.116","-22.2307704","-0.0572958","1.7761698"
"0.99","99","-0.004","0.013","0.0","-0.572958","-0.0572958","-0.1718874"
"0.99","99","-0.001","0.008","0.001","-0.1145916","-0.2291832","-0.4583664"
"0.99","99","-0.01","-0.017","-0.001","1.718874","-1.8907614000000001","-0.6302538"
"0.99","99","0.0","0.0","0.005","0.572958","1.3178034","0.7448454"
"1.0","100","0.018","-0.064","-0.035","5.5576926","-1.2605076","-0.6302538"
"1.0","100","-0.055","0.19","0.233","-23.7204612","-4.9274388","5.6149884000000005"
"1.0","100","-0.009","0.008","0.0","-0.5156622","0.4010706","-0.286479"
"1.0","100","0.011","0.014","0.003","-0.286479","0.572958","-0.4010706"
"1.0","100","-0.007","-0.014","0.001","1.8334656","-1.718874","-0.1145916"
"1.0","100","0.001","0.0","-0.001","0.6302538","1.3178034","0.6875496"
"1.01","101","0.025","-0.044","-0.03","5.2139178","-1.8334656","-0.1718874"
"1.01","101","-0.085","0.2","0.312","-18.220064400000002","-12.4331886","14.32395"
"1.01","101","-0.012","0.0","0.001","-0.3437748","0.4583664","-0.4010706"
"1.01","101","0.014","0.017","0.002","-0.5156622","0.6302538","-0.1718874"
"1.01","101","-0.005","-0.009","0.003","1.9480572","-1.432395","0.2291832"
"1.01","101","0.0","-0.001","0.001","0.4583664","1.3750992","0.6302538"
"1.02","102","0.037","-0.044","-0.014","2.578311","-1.7761698","0.0"
"1.02","102","-0.118","0.206","0.369","-7.448454","-21.8869956","26.814434400000003"
"1.02","102","-0.016","-0.005","0.001","-0.5156622","0.4010706","-0.4010706"
"1.02","102","0.014","0.015","0.002","-0.4010706","1.6042824","0.1145916"
"1.02","102","-0.001","-0.007","0.0","2.0053530000000004","-1.0886202","0.6302538"
"1.02","102","-0.002","-0.005","0.003","-0.1145916","0.859437","0.3437748"
"1.03","103","0.039","-0.046","-0.004","-0.1145916","-1.6615782000000001","0.0572958"
"1.03","103","-0.141","0.248","0.361","-0.286479","-34.5493674","39.7059894"
"1.03","103","-0.017","-0.009","-0.003","-0.3437748","0.1718874","-0.5156622"
"1.03","103","0.007","0.008","0.0","-0.1718874","2.0053530000000004","0.4010706"
"1.03","103","0.0","-0.004","-0.005","2.1199445999999997","-0.6875496","1.0886202"
"1.03","103","-0.006","-0.005","0.001","-1.145916","0.1718874","-0.1718874"
"1.04","104","0.036","-0.05","-0.001","-2.2345362","-1.3178034","0.0"
"1.04","104","-0.119","0.256","0.246","-4.297185","-46.008527400000006","50.3057124"
"1.04","104","-0.014","-0.013","-0.002","-0.4583664","0.1145916","-0.4583664"
"1.04","104","0.001","0.009","-0.001","-0.0572958","2.4637194","0.6302538"
"1.04","104","0.0","-0.001","-0.006","2.4064236","-0.286479","1.5469865999999999"
"1.04","104","-0.007","-0.001","-0.004","-1.8334656","0.1145916","-0.859437"
"1.05","105","0.039","-0.053","0.0","-4.1252976","-0.9740286","-0.1718874"
"1.05","105","-0.052","0.213","0.1","-15.870936600000002","-51.852699","56.6655462"
"1.05","105","-0.006","-0.014","-0.004","-0.4010706","-0.2291832","-0.1718874"
"1.05","105","-0.001","0.005","-0.002","-0.1145916","3.0366774","0.6875496"
"1.05","105","0.005","0.001","-0.011","2.8074942000000003","0.0572958","2.1199445999999997"
"1.05","105","-0.006","0.001","-0.01","-2.3491278","0.3437748","-1.8334656"
"1.06","106","0.027","-0.065","0.005","-4.6409598","-0.572958","-0.286479"
"1.06","106","-0.001","0.201","0.049","-34.205592599999996","-55.462334399999996","60.16059"
"1.06","106","-0.001","-0.014","-0.004","-0.4583664","-0.6875496","0.0572958"
"1.06","106","-0.008","0.003","-0.004","-0.286479","3.5523396","0.6302538"
"1.06","106","0.012","0.001","-0.014","3.3231564000000002","0.4010706","2.7501984"
"1.06","106","-0.012","0.001","-0.017","-2.9220857999999996","0.9167328","-2.9220857999999996"
"1.07","107","0.019","-0.069","0.011","-3.9534102000000004","-0.2291832","0.0"
"1.07","107","-0.016","0.267","0.088","-48.0711762","-58.441716","62.3378304"
"1.07","107","0.001","-0.011","-0.006","-0.2291832","-0.3437748","0.2291832"
"1.07","107","-0.014","0.002","-0.006","-0.2291832","3.6096354","0.4010706"
"1.07","107","0.013","0.002","-0.007","3.7815228000000003","0.6875496","3.3804521999999997"
"1.07","107","-0.014","-0.003","-0.014","-3.0366774","1.2605076","-3.4950438"
"1.08","108","0.018","-0.07","0.018","-2.86479","0.1718874","0.5156622"
"1.08","108","-0.09","0.289","0.22","-63.1399716","-66.6350154","64.62966239999999"
"1.08","108","0.0","-0.01","-0.006","-0.1718874","0.0","0.4010706"
"1.08","108","-0.017","0.003","-0.002","-0.3437748","2.6356068","0.286479"
"1.08","108","0.012","0.001","0.002","4.010706000000001","0.859437","3.8388186"
"1.08","108","-0.014","-0.007","-0.007","-3.2658606","0.6875496","-3.6096354"
"1.09","109","0.022","-0.069","0.026","-1.432395","0.4583664","1.4896908"
"1.09","109","-0.168","0.227","0.384","-72.25000379999999","-78.9536124","67.4944524"
"1.09","109","-0.006","-0.009","-0.007","0.0","0.1145916","0.3437748"
"1.09","109","-0.011","0.005","0.0","-0.1718874","1.3178034","0.2291832"
"1.09","109","0.012","0.0","0.011","3.8961144","0.9167328","4.1825934"
"1.09","109","-0.011","-0.012","0.001","-2.9793816","-0.9740286","-3.3804521999999997"
"1.1","110","0.022","-0.073","0.029","-0.572958","0.6302538","2.2345362"
"1.1","110","-0.227","0.142","0.532","-68.5257768","-94.251591","69.61439700000001"
"1.1","110","-0.01","-0.008","-0.005","0.1145916","0.0","0.286479"
"1.1","110","-0.002","0.006","0.001","-0.2291832","-0.1145916","0.0"
"1.1","110","0.011","0.001","0.018","3.437748","0.8021412","4.297185"
"1.1","110","-0.008","-0.01","0.006","-2.6929026","-2.4064236","-2.9793816"
"1.11","111","0.028","-0.062","0.027","-0.2291832","0.9740286","3.0939731999999998"
"1.11","111","-0.275","0.192","0.641","-58.9000824","-111.7841058","75.45856859999999"
"1.11","111","-0.012","-0.007","-0.003","0.1145916","-0.1718874","0.2291832"
"1.11","111","0.003","0.006","0.001","-0.2291832","-0.7448454","0.0"
"1.11","111","0.012","0.001","0.016","2.7501984","0.6302538","4.1252976"
"1.11","111","-0.002","0.002","0.01","-2.3491278","-3.3804521999999997","-2.3491278"
"1.12","112","0.033","-0.052","0.018","-1.2032118","1.718874","3.4950438"
"1.12","112","-0.31","0.297","0.612","-51.738107400000004","-123.18597","86.45936219999999"
"1.12","112","-0.011","-0.007","0.0","0.1718874","-0.4583664","0.1718874"
"1.12","112","0.002","0.007","0.003","-0.3437748","-0.9167328","0.0572958"
"1.12","112","0.011","0.001","0.01","1.8334656","0.3437748","3.6669312"
"1.12","112","0.006","0.016","0.011","-2.578311","-3.724227","-1.6615782000000001"
"1.1300000000000001","113","0.042","-0.053","0.012","-2.1772404","2.0053530000000004","3.437748"
"1.1300000000000001","113","-0.354","0.405","0.52","-52.597544400000004","-131.32197359999998","97.975818"
"1.1300000000000001","113","-0.009","-0.007","0.0","0.0","-0.4010706","0.3437748"
"1.1300000000000001","113","-0.002","0.0","0.005","-0.4583664","-0.8021412","0.4010706"
"1.1300000000000001","113","0.013","0.002","0.012","0.9740286","0.0572958","2.9793816"
"1.1300000000000001","113","0.013","0.014","0.006","-2.4637194","-3.2085648","-1.432395"
"1.1400000000000001","114","0.051","-0.056","0.007","-2.291832","2.4064236","3.0366774"
"1.1400000000000001","114","-0.406","0.394","0.424","-63.1399716","-142.2654714","109.2630906"
"1.1400000000000001","114","-0.006","-0.006","-0.001","0.1718874","-0.4583664","0.3437748"
"1.1400000000000001","114","-0.006","-0.002","0.003","-0.4583664","-0.3437748","0.572958"
"1.1400000000000001","114","0.019","0.002","0.012","0.0572958","-0.1718874","2.1199445999999997"
"1.1400000000000001","114","0.02","0.012","0.003","-2.1199445999999997","-2.578311","-1.3750992"
"1.1500000000000001","115","0.048","-0.054","0.005","-1.6042824","2.86479","2.291832"
"1.1500000000000001","115","-0.458","0.325","0.349","-75.1720896","-152.40682800000002","113.84675460000001"
"1.1500000000000001","115","-0.003","-0.002","0.001","0.1718874","-0.6302538","0.5156622"
"1.1500000000000001","115","-0.01","-0.009","0.0","-0.0572958","-0.0572958","0.6875496"
"1.1500000000000001","115","0.024","0.002","0.009","-0.7448454","-0.3437748","1.3178034"
"1.1500000000000001","115","0.028","0.011","0.001","-2.0053530000000004","-1.6042824","-1.5469865999999999"
"1.16","116","0.052","-0.052","0.001","-1.0886202","3.3231564000000002","1.432395"
"1.16","116","-0.504","0.301","0.278","-84.96967140000001","-165.7567494","115.85210759999998"
"1.16","116","-0.004","0.0","0.004","0.2291832","-0.572958","0.6302538"
"1.16","116","-0.014","-0.013","-0.001","0.0572958","-0.4010706","0.6875496"
"1.16","116","0.026","0.001","0.0","-1.4896908","-0.3437748","0.6875496"
"1.16","116","0.031","0.007","0.0","-2.0053530000000004","-0.1145916","-1.7761698"
"1.17","117","0.049","-0.053","-0.007","-0.572958","3.8961144","0.4583664"
"1.17","117","-0.551","0.293","0.221","-91.7878716","-184.03410960000002","118.6596018"
"1.17","117","-0.003","0.004","0.004","0.1145916","-0.2291832","0.6875496"
"1.17","117","-0.016","-0.012","-0.003","0.1718874","-1.145916","0.4010706"
"1.17","117","0.029","0.0","0.0","-2.1199445999999997","-0.2291832","0.3437748"
"1.17","117","0.029","0.004","0.001","-1.718874","0.859437","-2.1199445999999997"
"1.18","118","0.046","-0.053","-0.013","-0.6875496","4.297185","-0.3437748"
"1.18","118","-0.596","0.255","0.211","-96.25694399999999","-200.3634126","122.4411246"
"1.18","118","-0.004","0.006","0.003","0.0572958","0.0","0.572958"
"1.18","118","-0.006","-0.005","-0.002","0.0","-1.6615782000000001","0.1145916"
"1.18","118","0.028","0.0","0.006","-2.6929026","0.1145916","0.2291832"
"1.18","118","0.021","0.004","0.0","-2.1772404","1.6042824","-2.7501984"
"1.19","119","0.056","-0.058","-0.014","-0.9740286","4.5263682","-0.859437"
"1.19","119","-0.647","0.296","0.279","-105.65345520000001","-217.3229694","124.10270279999999"
"1.19","119","-0.006","0.008","0.0","0.1145916","0.2291832","0.572958"
"1.19","119","0.006","0.003","-0.001","-0.286479","-1.718874","0.1145916"
"1.19","119","0.027","-0.001","0.003","-3.2085648","0.6302538","0.2291832"
"1.19","119","0.018","0.005","-0.005","-2.6929026","2.0053530000000004","-3.5523396"
"1.2","120","0.06","-0.064","-0.015","-1.3750992","4.5263682","-1.432395"
"1.2","120","-0.715","0.366","0.361","-116.4823614","-236.74624559999998","127.0820844"
"1.2","120","-0.004","0.009","-0.004","0.0572958","0.4010706","0.572958"
"1.2","120","0.016","0.007","0.0","-0.1145916","-1.6042824","0.2291832"
"1.2","120","0.03","-0.003","-0.003","-3.724227","1.3750992","0.4010706"
"1.2","120","0.021","0.003","-0.01","-2.6929026","2.1199445999999997","-4.583664"
"1.21","121","0.073","-0.078","-0.011","-1.8334656","4.7555514","-1.8334656"
"1.21","121","-0.772","0.37","0.391","-125.07673139999999","-252.6171822","130.061466"
"1.21","121","-0.001","0.007","-0.007","0.0572958","0.3437748","0.572958"
"1.21","121","0.017","0.012","0.002","-0.2291832","-1.3178034","0.2291832"
"1.21","121","0.03","-0.004","-0.006","-4.1252976","2.1772404","0.6875496"
"1.21","121","0.016","0.0","-0.005","-2.1772404","2.1772404","-5.156622"
"1.22","122","0.071","-0.088","-0.007","-1.7761698","4.6982556","-2.0626488"
"1.22","122","-0.786","0.311","0.325","-129.6603954","-267.1703154","131.8949316"
"1.22","122","-0.001","0.002","-0.01","0.1718874","0.5156622","0.7448454"
"1.22","122","0.01","0.014","0.002","-0.1718874","-1.432395","0.286479"
"1.22","122","0.034","-0.004","-0.007","-4.3544808","3.151269","1.0313244"
"1.22","122","0.015","0.007","-0.008","-2.9220857999999996","2.86479","-5.6149884000000005"
"1.23","123","0.058","-0.094","-0.006","-1.4896908","4.9847345999999995","-1.8907614000000001"
"1.23","123","-0.703","0.214","0.192","-128.57177520000002","-280.6921242","133.72839720000002"
"1.23","123","-0.002","-0.002","-0.007","0.0572958","0.572958","0.7448454"
"1.23","123","0.007","0.014","0.004","-0.286479","-1.718874","0.4010706"
"1.23","123","0.035","-0.006","-0.011","-4.4117766","4.2398891999999995","1.718874"
"1.23","123","0.012","0.005","-0.008","-2.9220857999999996","2.5210152","-5.9014674"
"1.24","124","0.038","-0.098","-0.007","-0.859437","5.0993262","-1.432395"
"1.24","124","-0.618","0.169","0.115","-120.66495479999999","-287.911395","133.9575804"
"1.24","124","-0.002","-0.007","-0.005","0.2291832","0.572958","0.9167328"
"1.24","124","0.006","0.016","0.003","-0.3437748","-1.7761698","0.5156622"
"1.24","124","0.026","-0.01","-0.007","-4.4117766","5.443101","2.4637194"
"1.24","124","0.009","0.005","-0.008","-2.6356068","1.6042824","-5.9014674"
"1.25","125","0.028","-0.098","-0.008","-0.572958","5.5003968","-0.5156622"
"1.25","125","-0.56","0.173","0.038","-114.305121","-292.4377632","133.4419182"
"1.25","125","-0.003","-0.01","0.0","0.1145916","0.6875496","0.859437"
"1.25","125","0.0","0.009","0.0","-0.4583664","-1.2032118","0.572958"
"1.25","125","0.009","-0.019","-0.002","-4.4117766","6.589017","3.0939731999999998"
"1.25","125","0.006","0.015","-0.006","-2.4064236","1.6615782000000001","-6.0733548"
"1.26","126","0.028","-0.101","-0.005","-0.2291832","5.2139178","0.286479"
"1.26","126","-0.585","0.244","0.04","-111.2684436","-296.44846920000003","133.0408476"
"1.26","126","-0.006","-0.014","0.002","0.2291832","0.8021412","0.8021412"
"1.26","126","-0.013","0.003","-0.001","-0.4583664","-1.0313244","0.5156622"
"1.26","126","-0.005","-0.028","0.005","-4.6409598","7.5057498","3.5523396"
"1.26","126","0.006","0.018","-0.003","-2.3491278","1.7761698","-6.1306506"
"1.27","127","0.044","-0.105","-0.009","1.2032118","5.2139178","1.3178034"
"1.27","127","-0.655","0.298","0.023","-111.0392604","-299.82892139999996","134.072172"
"1.27","127","-0.006","-0.017","0.002","0.1718874","0.4583664","0.8021412"
"1.27","127","-0.016","0.0","0.002","0.1718874","-1.2605076","0.4010706"
"1.27","127","-0.018","-0.035","0.018","-5.2139178","8.193299399999999","3.724227"
"1.27","127","0.0","0.015","0.0","-2.5210152","2.5210152","-6.2452422"
"1.28","128","0.062","-0.107","-0.012","2.4637194","4.8701430000000006","2.4637194"
"1.28","128","-0.669","0.228","-0.081","-108.5182452","-305.386614","127.4258592"
"1.28","128","-0.003","-0.016","0.0","0.4010706","0.1145916","0.859437"
"1.28","128","-0.012","-0.003","0.003","0.3437748","-1.6042824","0.286479"
"1.28","128","-0.046","-0.044","0.022","-6.1306506","8.5370742","3.4950438"
"1.28","128","-0.002","0.012","0.006","-2.5210152","3.2085648","-6.0733548"
"1.29","129","0.07","-0.114","-0.014","3.7815228000000003","4.6982556","3.4950438"
"1.29","129","-0.582","0.055","-0.179","-105.3096804","-309.5119116","132.353298"
"1.29","129","-0.002","-0.011","-0.001","0.3437748","-0.286479","0.859437"
"1.29","129","-0.006","-0.008","0.003","0.1718874","-2.1772404","0.2291832"
"1.29","129","-0.075","-0.055","0.017","-7.6203414","8.3651868","2.4637194"
"1.29","129","0.0","0.022","0.012","-2.4064236","3.724227","-5.5576926"
"1.3","130","0.065","-0.107","-0.015","4.9847345999999995","4.5263682","4.9274388"
"1.3","130","-0.46","-0.005","-0.264","-92.70460440000001","-309.5692074","126.337239"
"1.3","130","-0.006","-0.008","-0.002","0.286479","-0.572958","0.9167328"
"1.3","130","-0.001","-0.006","0.001","0.0","-2.7501984","0.286479"
"1.3","130","-0.092","-0.057","0.013","-9.2246238","7.7922288","0.9167328"
"1.3","130","-0.003","0.021","0.007","-2.5210152","3.8961144","-5.6722842"
"1.31","131","0.046","-0.098","-0.007","4.9274388","4.4690724","6.1879463999999995"
"1.31","131","-0.422","-0.066","-0.308","-79.1254998","-307.0481922","127.36856339999999"
"1.31","131","-0.011","-0.004","0.0","0.286479","-1.3178034","0.9167328"
"1.31","131","0.0","-0.011","-0.002","0.1718874","-3.0939731999999998","0.572958"
"1.31","131","-0.083","-0.054","-0.008","-10.6570188","6.8182002","-0.8021412"
"1.31","131","-0.011","0.016","0.008","-2.578311","3.2085648","-5.72958"
"1.32","132","0.029","-0.094","-0.003","4.9847345999999995","4.1252976","7.2192708"
"1.32","132","-0.459","0.054","-0.172","-72.5364828","-305.6157972","128.7436626"
"1.32","132","-0.014","0.004","0.002","0.286479","-1.9480572","0.9740286"
"1.32","132","-0.003","-0.006","-0.007","0.286479","-3.8388186","0.5156622"
"1.32","132","-0.059","-0.049","-0.034","-11.45916","5.9014674","-1.7761698"
"1.32","132","-0.014","0.007","0.009","-3.0366774","1.0886202","-5.72958"
"1.33","133","0.031","-0.083","-0.005","4.8128472","3.8961144","8.4224826"
"1.33","133","-0.614","0.213","-0.146","-67.609044","-305.5012056","131.7230442"
"1.33","133","-0.009","0.016","0.01","0.0","-2.1772404","0.9167328"
"1.33","133","-0.012","-0.004","-0.007","0.2291832","-4.5263682","0.4010706"
"1.33","133","-0.033","-0.044","-0.044","-11.45916","5.3858052","-1.3750992"
"1.33","133","-0.011","-0.003","0.01","-2.6929026","-1.718874","-5.5576926"
"1.34","134","0.023","-0.084","-0.006","4.583664","3.8961144","9.2819196"
"1.34","134","-0.625","0.215","-0.154","-72.82296179999999","-305.7876846","134.3013552"
"1.34","134","-0.007","0.022","0.012","-0.3437748","-2.3491278","0.8021412"
"1.34","134","-0.017","-0.008","-0.008","0.4583664","-5.786875800000001","0.286479"
"1.34","134","-0.002","-0.043","-0.036","-10.7143146","5.443101","0.9167328"
"1.34","134","-0.004","-0.005","0.014","-2.3491278","-3.2658606","-5.2712136"
"1.35","135","0.005","-0.076","-0.01","5.3858052","3.7815228000000003","9.6829902"
"1.35","135","-0.617","0.226","-0.228","-75.343977","-303.3239652","133.2700308"
"1.35","135","-0.007","0.033","0.011","-0.6302538","-2.4064236","0.7448454"
"1.35","135","-0.016","-0.011","-0.007","0.6875496","-6.9900876","0.0572958"
"1.35","135","0.009","-0.04","-0.024","-9.5683986","6.016058999999999","4.6982556"
"1.35","135","0.011","0.0","0.012","-2.6929026","-4.297185","-5.3858052"
"1.36","136","0.0","-0.066","-0.013","6.016058999999999","3.8388186","9.740286000000001"
"1.36","136","-0.567","0.131","-0.434","-69.4425096","-299.4278508","127.88422560000001"
"1.36","136","-0.004","0.041","0.004","-0.572958","-2.7501984","0.6302538"
"1.36","136","-0.011","-0.014","-0.006","0.9740286","-7.7922288","-0.1145916"
"1.36","136","0.005","-0.041","-0.024","-8.3651868","6.8182002","9.2246238"
"1.36","136","0.018","-0.001","0.008","-2.9793816","-4.4690724","-5.443101"
"1.37","137","-0.013","-0.063","-0.02","7.2192708","4.010706000000001","9.2819196"
"1.37","137","-0.531","-0.027","-0.5","-64.17129600000001","-298.56841380000003","134.3013552"
"1.37","137","0.0","0.042","0.001","-0.9740286","-2.9220857999999996","0.6302538"
"1.37","137","-0.002","-0.009","-0.003","1.145916","-8.193299399999999","-0.5156622"
"1.37","137","0.002","-0.04","-0.018","-6.9900876","7.6776372","13.865583599999999"
"1.37","137","0.017","-0.003","0.01","-3.0366774","-4.068001799999999","-4.9847345999999995"
"1.3800000000000001","138","-0.025","-0.047","-0.029","8.2505952","4.068001799999999","8.7662574"
"1.3800000000000001","138","-0.54","-0.046","-0.486","-50.3057124","-294.0993414","134.12946780000001"
"1.3800000000000001","138","0.003","0.041","-0.001","-1.0313244","-3.2085648","0.4583664"
"1.3800000000000001","138","0.008","-0.006","0.0","1.2032118","-8.7662574","-0.6302538"
"1.3800000000000001","138","-0.005","-0.037","-0.013","-5.6149884000000005","8.2505952","17.7044022"
"1.3800000000000001","138","0.015","-0.004","0.01","-3.3804521999999997","-3.7815228000000003","-4.068001799999999"
"1.3900000000000001","139","-0.031","-0.03","-0.037","7.3338624","4.2398891999999995","7.7922288"
"1.3900000000000001","139","-0.572","-0.014","-0.466","-33.6899304","-286.9946622","136.42129979999999"
"1.3900000000000001","139","0.009","0.032","0.0","-1.3178034","-2.8074942000000003","0.3437748"
"1.3900000000000001","139","0.018","0.0","0.002","0.5156622","-8.8235532","-0.8021412"
"1.3900000000000001","139","-0.016","-0.035","-0.021","-4.3544808","8.479778399999999","20.1681216"
"1.3900000000000001","139","0.019","-0.002","0.006","-3.2658606","-2.7501984","-2.6929026"
"1.4000000000000001","140","-0.038","-0.021","-0.04","4.8701430000000006","4.4117766","6.5317212"
"1.4000000000000001","140","-0.577","0.065","-0.475","-31.684577400000002","-279.7753914","138.0255822"
"1.4000000000000001","140","0.017","0.022","0.002","-1.3750992","-2.8074942000000003","0.1718874"
"1.4000000000000001","140","0.031","0.017","0.001","0.1145916","-8.2505952","-0.9167328"
"1.4000000000000001","140","-0.021","-0.029","-0.031","-3.0939731999999998","8.193299399999999","20.9702628"
"1.4000000000000001","140","0.025","-0.01","0.0","-2.6356068","-1.432395","-1.7761698"
"1.41","141","-0.037","-0.015","-0.041","1.145916","4.7555514","5.5003968"
"1.41","141","-0.577","0.077","-0.493","-40.0497642","-272.5561206","135.791046"
"1.41","141","0.024","0.01","0.002","-1.432395","-2.0626488","0.2291832"
"1.41","141","0.037","0.022","0.01","0.0572958","-6.9327917999999995","-0.859437"
"1.41","141","-0.024","-0.028","-0.041","-1.8334656","7.563045600000001","20.340009"
"1.41","141","0.025","-0.014","-0.007","-1.6042824","-1.432395","-1.0886202"
"1.42","142","-0.031","-0.021","-0.04","-2.291832","5.0420304","4.583664"
"1.42","142","-0.587","0.007","-0.568","-50.2484166","-265.2222582","130.061466"
"1.42","142","0.027","-0.001","-0.002","-1.432395","-1.2605076","0.2291832"
"1.42","142","0.038","0.029","0.011","0.1145916","-6.302538","-0.9167328"
"1.42","142","-0.021","-0.024","-0.035","-0.4583664","6.6463128000000005","18.3919518"
"1.42","142","0.017","-0.011","-0.016","-1.5469865999999999","-1.3750992","-0.8021412"
"1.43","143","-0.031","-0.044","-0.04","-5.2712136","5.2139178","3.3804521999999997"
"1.43","143","-0.524","-0.123","-0.521","-52.024586400000004","-258.0029874","124.331886"
"1.43","143","0.023","-0.011","-0.007","-1.2032118","-0.6302538","0.0572958"
"1.43","143","0.037","0.032","0.011","0.1718874","-5.6722842","-0.7448454"
"1.43","143","-0.014","-0.021","-0.025","0.6302538","5.5003968","15.527161800000002"
"1.43","143","0.008","-0.01","-0.019","-1.4896908","-0.859437","-0.6875496"
"1.44","144","-0.032","-0.05","-0.044","-4.1825934","4.8128472","2.6929026"
"1.44","144","-0.473","-0.159","-0.533","-47.269034999999995","-250.7837166","117.3990942"
"1.44","144","0.019","-0.024","-0.009","-1.0886202","0.1145916","-0.0572958"
"1.44","144","0.033","0.029","0.005","0.1718874","-5.0993262","-0.8021412"
"1.44","144","0.0","-0.018","-0.014","1.6042824","4.4690724","12.4904844"
"1.44","144","0.0","-0.013","-0.018","-1.718874","-1.2605076","-0.4583664"
"1.45","145","-0.025","-0.056","-0.046","-1.718874","4.1825934","2.0626488"
"1.45","145","-0.391","-0.191","-0.543","-40.5081306","-237.8348658","109.2630906"
"1.45","145","0.015","-0.026","-0.007","-0.9167328","0.286479","-0.3437748"
"1.45","145","0.029","0.022","0.0","0.4010706","-4.068001799999999","-0.8021412"
"1.45","145","0.013","-0.013","-0.009","2.3491278","3.6096354","9.5683986"
"1.45","145","0.0","-0.011","-0.013","-1.0313244","-1.8907614000000001","0.1145916"
"1.46","146","-0.03","-0.066","-0.053","2.2345362","3.6096354","1.432395"
"1.46","146","-0.372","-0.191","-0.459","-34.2628884","-227.8081008","99.06443820000001"
"1.46","146","0.014","-0.03","-0.006","-0.8021412","0.4583664","-0.572958"
"1.46","146","0.023","0.015","0.001","0.3437748","-2.6929026","-0.859437"
"1.46","146","0.018","-0.013","-0.007","2.8074942000000003","3.2658606","7.0473834"
"1.46","146","0.004","-0.001","-0.014","-0.4010706","-1.3750992","0.572958"
"1.47","147","-0.033","-0.055","-0.057","4.068001799999999","3.0366774","1.3178034"
"1.47","147","-0.392","-0.266","-0.452","-24.5798982","-213.82792560000001","99.2936214"
"1.47","147","0.016","-0.032","-0.007","-0.8021412","0.8021412","-0.6875496"
"1.47","147","0.017","0.001","0.004","0.1718874","-1.8907614000000001","-0.859437"
"1.47","147","0.017","-0.011","-0.007","3.0939731999999998","3.2085648","4.8128472"
"1.47","147","0.006","0.005","-0.008","0.3437748","0.0572958","0.9167328"
"1.48","148","-0.029","-0.046","-0.052","3.0939731999999998","2.9220857999999996","0.9740286"
"1.48","148","-0.354","-0.343","-0.443","-4.297185","-204.4314144","95.0537322"
"1.48","148","0.015","-0.028","-0.005","-0.6875496","0.9167328","-0.7448454"
"1.48","148","0.01","-0.001","0.002","0.0572958","-1.2032118","-0.9740286"
"1.48","148","0.013","-0.007","-0.004","3.2658606","3.437748","2.86479"
"1.48","148","0.015","0.001","-0.002","0.7448454","0.9167328","1.2032118"
"1.49","149","-0.026","-0.042","-0.048","-0.3437748","3.0939731999999998","0.4583664"
"1.49","149","-0.316","-0.353","-0.391","13.1207382","-195.6078612","88.4074194"
"1.49","149","0.012","-0.02","0.0","-0.572958","1.0886202","-0.859437"
"1.49","149","0.007","-0.004","-0.001","0.0","-0.6875496","-0.9167328"
"1.49","149","0.005","-0.005","-0.001","3.3231564000000002","3.8388186","1.0313244"
"1.49","149","0.016","0.002","-0.003","0.572958","1.6042824","1.6042824"
"1.5","150","-0.014","-0.043","-0.053","-4.5263682","3.437748","0.1718874"
"1.5","150","-0.302","-0.294","-0.462","24.923673","-183.4611516","84.8550798"
"1.5","150","0.01","-0.014","0.002","-0.6302538","1.5469865999999999","-0.9167328"
"1.5","150","0.008","-0.003","-0.003","0.0572958","-0.1718874","-0.9740286"
"1.5","150","-0.004","-0.007","-0.004","3.2085648","4.3544808","-0.5156622"
"1.5","150","0.017","0.003","-0.005","0.6875496","2.4637194","1.5469865999999999"
"1.51","151","-0.003","-0.058","-0.056","-7.2765666","3.437748","-0.286479"
"1.51","151","-0.205","-0.288","-0.542","25.725814200000002","-174.5803026","79.1254998"
"1.51","151","0.007","-0.006","0.002","-0.572958","1.7761698","-0.8021412"
"1.51","151","0.009","0.0","-0.002","0.0","0.7448454","-0.859437"
"1.51","151","-0.014","-0.006","-0.002","3.0366774","4.7555514","-2.0626488"
"1.51","151","0.019","0.003","-0.007","0.9740286","3.6096354","1.718874"
"1.52","152","-0.005","-0.077","-0.057","-7.0473834","2.9793816","-0.5156622"
"1.52","152","-0.119","-0.383","-0.758","17.8762896","-162.5481846","69.2133264"
"1.52","152","0.0","-0.002","-0.002","-0.5156622","2.1199445999999997","-0.6302538"
"1.52","152","0.013","0.011","0.0","-0.286479","1.5469865999999999","-0.7448454"
"1.52","152","-0.02","-0.008","-0.003","2.6929026","5.0420304","-3.3804521999999997"
"1.52","152","0.018","0.0","-0.008","0.572958","4.9274388","1.6042824"
"1.53","153","-0.005","-0.084","-0.057","-4.3544808","2.1772404","-0.3437748"
"1.53","153","-0.03","-0.799","-0.962","13.0634424","-140.08823099999998","52.712136"
"1.53","153","-0.007","-0.001","-0.006","-0.286479","2.4637194","-0.6875496"
"1.53","153","0.013","0.025","0.004","-1.145916","2.7501984","-0.6875496"
"1.53","153","-0.029","-0.011","-0.002","2.4064236","5.156622","-4.4690724"
"1.53","153","0.008","-0.002","-0.007","0.0","5.6722842","1.2605076"
"1.54","154","-0.013","-0.081","-0.056","-1.2032118","1.145916","-0.2291832"
"1.54","154","0.072","-1.073","-1.168","27.9603504","-119.461743","39.1330314"
"1.54","154","-0.017","-0.001","-0.006","-0.1718874","2.1199445999999997","-0.6875496"
"1.54","154","0.009","0.031","0.003","-1.2605076","3.3804521999999997","-0.572958"
"1.54","154","-0.036","-0.013","0.001","2.0626488","5.0993262","-5.443101"
"1.54","154","-0.004","-0.005","-0.009","-0.6875496","5.786875800000001","0.6875496"
"1.55","155","-0.027","-0.069","-0.047","0.3437748","0.1718874","0.286479"
"1.55","155","0.133","-0.932","-1.215","38.3308902","-90.0117018","16.7303736"
"1.55","155","-0.021","-0.003","-0.007","-0.1145916","1.8334656","-0.7448454"
"1.55","155","0.01","0.038","0.002","-1.432395","3.8961144","-0.4010706"
"1.55","155","-0.04","-0.016","-0.001","1.6615782000000001","4.7555514","-6.3598338"
"1.55","155","-0.019","-0.011","-0.01","-0.6875496","5.6149884000000005","0.286479"
"1.56","156","-0.031","-0.06","-0.04","-0.9167328","-0.3437748","1.0886202"
"1.56","156","0.076","-0.537","-1.017","30.538661400000002","-55.290447","-5.3285094"
"1.56","156","-0.022","-0.005","-0.004","0.0","1.3178034","-0.6875496"
"1.56","156","0.009","0.044","0.003","-1.6615782000000001","4.4690724","-0.2291832"
"1.56","156","-0.045","-0.019","-0.004","1.3178034","4.1825934","-7.2765666"
"1.56","156","-0.025","-0.004","-0.004","-0.572958","4.3544808","0.0"
"1.57","157","-0.015","-0.058","-0.034","-3.8388186","-0.4583664","2.0626488"
"1.57","157","0.016","-0.271","-0.741","-4.3544808","-32.31483119999999","-20.7410796"
"1.57","157","-0.021","-0.004","0.0","0.0","0.9740286","-0.572958"
"1.57","157","-0.004","0.027","0.004","-1.2605076","4.2398891999999995","0.0"
"1.57","157","-0.049","-0.021","-0.008","0.9740286","3.3804521999999997","-8.078707799999998"
"1.57","157","-0.021","0.002","0.002","-0.8021412","3.6096354","0.1145916"
"1.58","158","0.005","-0.067","-0.035","-6.3598338","-0.9740286","3.3231564000000002"
"1.58","158","0.017","-0.174","-0.46","-41.310271799999995","-10.8289062","-31.627281600000003"
"1.58","158","-0.019","0.0","0.006","-0.0572958","0.5156622","-0.4010706"
"1.58","158","-0.017","0.014","0.009","-0.8021412","4.1825934","0.1145916"
"1.58","158","-0.055","-0.025","-0.012","0.7448454","2.3491278","-8.7089616"
"1.58","158","-0.012","0.002","0.009","-0.572958","3.2658606","0.572958"
"1.59","159","0.019","-0.078","-0.034","-6.875496","-1.3178034","4.4690724"
"1.59","159","0.068","-0.196","-0.354","-50.4775998","7.7922288","-37.528749000000005"
"1.59","159","-0.017","0.005","0.008","-0.1145916","0.4010706","-0.1145916"
"1.59","159","-0.025","0.005","0.009","-0.9167328","3.724227","0.2291832"
"1.59","159","-0.05","-0.031","-0.002","0.5156622","1.2032118","-9.110032200000001"
"1.59","159","-0.003","0.0","0.019","-0.1145916","2.1199445999999997","1.432395"
"1.6","160","0.036","-0.078","-0.033","-4.9847345999999995","-2.0626488","5.3858052"
"1.6","160","0.084","-0.172","-0.337","-34.3201842","21.199446","-37.5860448"
"1.6","160","-0.018","0.013","0.004","-0.2291832","0.572958","0.0572958"
"1.6","160","-0.033","-0.006","0.004","-1.145916","3.0366774","0.1718874"
"1.6","160","-0.045","-0.034","0.013","0.0572958","0.0","-8.9954406"
"1.6","160","-0.001","-0.001","0.021","0.0","1.0886202","1.7761698"
"1.61","161","0.039","-0.072","-0.036","-1.145916","-2.578311","6.2452422"
"1.61","161","0.031","-0.085","-0.347","-13.808287799999999","32.142943800000005","-32.085648000000006"
"1.61","161","-0.015","0.018","0.002","-0.1718874","0.8021412","0.4010706"
"1.61","161","-0.036","-0.014","-0.006","-1.3750992","1.6615782000000001","0.0572958"
"1.61","161","-0.038","-0.035","0.022","-0.572958","-1.145916","-8.3651868"
"1.61","161","0.001","-0.001","0.013","-0.3437748","0.6302538","1.6615782000000001"
"1.62","162","0.039","-0.064","-0.038","2.3491278","-3.3804521999999997","6.8182002"
"1.62","162","-0.007","0.061","-0.326","1.718874","42.685370999999996","-25.1528562"
"1.62","162","-0.016","0.023","0.003","-0.286479","0.859437","0.4010706"
"1.62","162","-0.027","-0.013","-0.011","-1.432395","0.9740286","0.0572958"
"1.62","162","-0.03","-0.034","0.02","-1.5469865999999999","-2.1199445999999997","-7.161975"
"1.62","162","0.003","-0.002","0.002","-0.6302538","0.7448454","0.9740286"
"1.6300000000000001","163","0.041","-0.045","-0.043","4.9274388","-3.8388186","6.9327917999999995"
"1.6300000000000001","163","-0.016","0.208","-0.253","0.2291832","48.0711762","-18.7357266"
"1.6300000000000001","163","-0.013","0.03","0.003","-0.4010706","0.9167328","0.572958"
"1.6300000000000001","163","-0.015","-0.011","-0.008","-1.145916","0.8021412","0.1145916"
"1.6300000000000001","163","-0.023","-0.034","0.006","-2.6356068","-2.9220857999999996","-5.6722842"
"1.6300000000000001","163","0.007","-0.001","-0.002","-0.4010706","0.859437","0.4010706"
"1.6400000000000001","164","0.041","-0.023","-0.037","4.2398891999999995","-4.2398891999999995","6.760904399999999"
"1.6400000000000001","164","-0.028","0.288","-0.152","-11.745638999999999","51.1078536","-11.8602306"
"1.6400000000000001","164","-0.009","0.03","0.002","-0.4010706","1.0886202","0.6302538"
"1.6400000000000001","164","-0.01","-0.008","-0.002","-0.9740286","0.6302538","0.3437748"
"1.6400000000000001","164","-0.012","-0.029","-0.007","-3.6096354","-3.4950438","-4.1252976"
"1.6400000000000001","164","0.008","-0.002","-0.004","-0.2291832","1.432395","0.0"
"1.6500000000000001","165","0.043","-0.013","-0.025","1.432395","-4.4117766","6.302538"
"1.6500000000000001","165","-0.043","0.238","-0.029","-25.9549974","51.279741","-4.4117766"
"1.6500000000000001","165","-0.008","0.025","0.0","-0.286479","0.859437","0.5156622"
"1.6500000000000001","165","-0.008","-0.003","-0.001","-1.145916","0.859437","0.5156622"
"1.6500000000000001","165","-0.001","-0.025","-0.024","-4.2398891999999995","-3.8388186","-2.6356068"
"1.6500000000000001","165","0.006","-0.004","-0.004","0.1145916","1.3750992","-0.1145916"
"1.6600000000000001","166","0.036","-0.008","-0.019","-2.2345362","-4.2398891999999995","5.9587632"
"1.6600000000000001","166","-0.044","0.151","0.03","-28.361421","49.790050199999996","0.3437748"
"1.6600000000000001","166","-0.007","0.017","-0.001","-0.5156622","1.0313244","0.4583664"
"1.6600000000000001","166","-0.001","0.009","-0.001","-1.3750992","1.0313244","0.6302538"
"1.6600000000000001","166","0.007","-0.025","-0.035","-4.3544808","-4.068001799999999","-1.3178034"
"1.6600000000000001","166","0.002","-0.01","-0.006","-0.0572958","1.0886202","-0.3437748"
"1.67","167","0.032","-0.006","-0.023","-6.0733548","-4.010706000000001","5.6722842"
"1.67","167","-0.025","0.041","0.036","-17.4179232","47.7274014","4.4117766"
"1.67","167","-0.007","0.01","-0.001","-0.3437748","0.9167328","0.572958"
"1.67","167","0.002","0.016","-0.002","-1.6042824","0.859437","0.572958"
"1.67","167","0.015","-0.022","-0.037","-4.010706000000001","-4.068001799999999","-0.3437748"
"1.67","167","0.0","-0.017","-0.007","-0.1145916","1.2605076","-0.6875496"
"1.68","168","0.024","-0.017","-0.017","-9.167328","-3.7815228000000003","5.2712136"
"1.68","168","-0.028","-0.03","0.046","-5.5576926","46.123119","4.9274388"
"1.68","168","-0.005","-0.001","-0.002","-0.5156622","0.4583664","0.6302538"
"1.68","168","0.006","0.018","0.0","-1.5469865999999999","0.0","0.5156622"
"1.68","168","0.02","-0.021","-0.031","-3.437748","-3.8388186","0.286479"
"1.68","168","-0.003","-0.011","-0.007","0.0","1.145916","-0.859437"
"1.69","169","0.023","-0.032","-0.012","-7.563045600000001","-3.9534102000000004","5.0420304"
"1.69","169","-0.032","-0.066","0.023","7.6203414","44.346949200000005","3.3804521999999997"
"1.69","169","-0.003","-0.008","-0.007","-0.572958","0.2291832","0.8021412"
"1.69","169","0.012","0.018","0.004","-1.3178034","-0.4010706","0.4010706"
"1.69","169","0.02","-0.021","-0.016","-2.86479","-3.437748","0.6875496"
"1.69","169","-0.004","-0.011","-0.005","0.5156622","0.6875496","-1.0886202"
"1.7","170","0.028","-0.034","-0.011","-3.2085648","-4.297185","4.6409598"
"1.7","170","-0.019","-0.119","-0.05","16.7876694","43.2010332","-1.145916"
"1.7","170","0.0","-0.015","-0.005","-0.3437748","-0.1145916","0.7448454"
"1.7","170","0.013","0.01","0.007","-1.0886202","-0.4583664","0.4010706"
"1.7","170","0.018","-0.024","-0.003","-2.4064236","-2.9220857999999996","0.6875496"
"1.7","170","-0.016","-0.011","0.002","0.4583664","0.3437748","-0.9167328"
"1.71","171","0.024","-0.031","-0.01","1.718874","-4.6982556","3.9534102000000004"
"1.71","171","-0.01","-0.18","-0.139","17.3033316","43.8885828","-7.3911582000000005"
"1.71","171","-0.003","-0.017","-0.001","-0.572958","-0.9167328","0.572958"
"1.71","171","0.008","-0.005","0.0","-0.5156622","-0.4583664","0.572958"
"1.71","171","0.017","-0.027","-0.003","-2.3491278","-2.2345362","0.5156622"
"1.71","171","-0.027","-0.012","0.003","0.2291832","-1.3178034","-0.4583664"
"1.72","172","0.025","-0.018","-0.007","4.8128472","-4.7555514","3.151269"
"1.72","172","-0.002","-0.247","-0.263","14.495837400000001","46.6387812","-16.615782"
"1.72","172","-0.002","-0.012","0.0","-0.5156622","-1.5469865999999999","0.4583664"
"1.72","172","0.002","-0.018","-0.008","-0.286479","-0.286479","0.4010706"
"1.72","172","0.018","-0.028","0.0","-2.3491278","-1.5469865999999999","0.1718874"
"1.72","172","-0.023","-0.003","0.002","0.2291832","-2.8074942000000003","-0.1145916"
"1.73","173","0.017","-0.003","-0.004","5.6722842","-4.6409598","2.0626488"
"1.73","173","0.001","-0.314","-0.345","9.5683986","51.5089242","-26.642547"
"1.73","173","0.0","-0.006","-0.001","-0.5156622","-1.718874","0.4010706"
"1.73","173","-0.007","-0.025","-0.012","-0.286479","-0.1718874","0.4010706"
"1.73","173","0.015","-0.03","0.001","-2.5210152","-0.859437","-0.1718874"
"1.73","173","-0.017","0.005","0.003","-0.1718874","-3.0366774","-0.1145916"
"1.74","174","0.006","0.009","-0.005","3.8961144","-4.3544808","0.9740286"
"1.74","174","0.013","-0.336","-0.388","5.786875800000001","57.2385042","-36.096354"
"1.74","174","0.002","0.003","-0.003","-0.6875496","-1.8334656","0.286479"
"1.74","174","-0.009","-0.026","-0.009","-0.3437748","-0.4583664","0.2291832"
"1.74","174","0.008","-0.03","-0.009","-2.6929026","-0.1718874","-0.6302538"
"1.74","174","-0.008","0.0","0.0","-0.5156622","-3.5523396","-0.3437748"
"1.75","175","0.008","0.012","0.003","-0.3437748","-4.010706000000001","0.0572958"
"1.75","175","0.02","-0.324","-0.39","4.6409598","64.62966239999999","-46.352302200000004"
"1.75","175","0.002","0.003","-0.005","-0.6875496","-1.8334656","0.2291832"
"1.75","175","-0.009","-0.023","-0.006","-0.5156622","-1.145916","0.0"
"1.75","175","0.002","-0.032","-0.016","-2.6929026","0.3437748","-1.2032118"
"1.75","175","-0.002","0.003","0.001","-0.5156622","-3.4950438","-0.5156622"
"1.76","176","0.017","-0.002","0.018","-4.7555514","-3.3231564000000002","-0.8021412"
"1.76","176","0.013","-0.332","-0.395","6.302538","72.70837019999999","-54.946672199999995"
"1.76","176","0.001","-0.001","-0.002","-0.859437","-1.718874","0.1145916"
"1.76","176","-0.003","-0.01","-0.001","-0.3437748","-2.1772404","-0.1145916"
"1.76","176","-0.009","-0.033","-0.004","-2.5210152","0.8021412","-1.9480572"
"1.76","176","0.0","0.005","0.004","-0.6302538","-2.6929026","-0.4010706"
"1.77","177","0.021","-0.017","0.023","-7.7922288","-2.3491278","-1.7761698"
"1.77","177","0.012","-0.334","-0.411","9.6256944","81.2454444","-61.9940556"
"1.77","177","-0.002","0.001","-0.002","-0.572958","-1.6615782000000001","0.1145916"
"1.77","177","0.001","0.001","0.002","-0.1145916","-2.5210152","0.0572958"
"1.77","177","-0.016","-0.034","-0.001","-2.291832","1.0313244","-2.86479"
"1.77","177","0.007","0.008","0.006","-0.5156622","-2.9220857999999996","0.0"
"1.78","178","0.014","-0.032","0.024","-7.906820400000001","-1.6042824","-2.5210152"
"1.78","178","0.015","-0.284","-0.446","17.18874","93.2202666","-68.58307260000001"
"1.78","178","-0.003","-0.004","0.003","-0.572958","-1.718874","0.1145916"
"1.78","178","0.001","0.008","0.003","-0.1718874","-2.8074942000000003","0.0572958"
"1.78","178","-0.019","-0.037","-0.005","-2.0626488","0.9740286","-3.724227"
"1.78","178","0.013","0.011","0.008","-0.6302538","-2.86479","0.3437748"
"1.79","179","0.006","-0.046","0.023","-5.2712136","-1.2605076","-3.0939731999999998"
"1.79","179","0.001","-0.285","-0.498","23.0902074","104.3356518","-72.82296179999999"
"1.79","179","-0.003","-0.01","0.003","-0.6875496","-1.7761698","0.1718874"
"1.79","179","-0.001","0.003","0.001","0.0","-2.9220857999999996","0.2291832"
"1.79","179","-0.023","-0.036","-0.006","-1.7761698","0.8021412","-4.3544808"
"1.79","179","0.014","0.005","0.011","-0.4010706","-2.6929026","0.9167328"
"1.8","180","0.003","-0.05","0.022","-0.8021412","-0.859437","-3.7815228000000003"
"1.8","180","-0.006","-0.295","-0.552","25.0955604","115.9094034","-77.75040059999999"
"1.8","180","-0.002","-0.009","0.002","-0.4583664","-1.4896908","0.2291832"
"1.8","180","-0.004","0.001","0.0","0.1145916","-2.5210152","0.2291832"
"1.8","180","-0.028","-0.036","-0.009","-1.4896908","0.5156622","-4.8701430000000006"
"1.8","180","0.012","0.004","0.009","-0.0572958","-2.7501984","1.3750992"
"1.81","181","0.006","-0.046","0.019","2.291832","-0.6302538","-4.4690724"
"1.81","181","-0.007","-0.298","-0.612","26.642547","129.6030996","-82.79243100000001"
"1.81","181","-0.001","-0.011","0.0","-0.4010706","-1.3750992","0.4010706"
"1.81","181","-0.001","0.0","0.003","0.3437748","-2.0626488","0.286479"
"1.81","181","-0.032","-0.033","-0.012","-1.0886202","0.1145916","-5.2712136"
"1.81","181","0.006","0.001","0.004","0.0","-2.6356068","1.3750992"
"1.82","182","0.011","-0.043","0.01","3.9534102000000004","-0.0572958","-5.0420304"
"1.82","182","-0.016","-0.306","-0.634","25.725814200000002","144.0416412","-87.662574"
"1.82","182","0.0","-0.013","-0.005","-0.1145916","-0.6875496","0.572958"
"1.82","182","0.0","0.0","0.004","0.1718874","-1.8907614000000001","0.1145916"
"1.82","182","-0.034","-0.034","-0.012","-0.6875496","-0.3437748","-5.443101"
"1.82","182","-0.004","0.005","0.0","0.0","-2.2345362","1.2032118"
"1.83","183","0.009","-0.043","0.007","3.724227","0.6302538","-5.6149884000000005"
"1.83","183","-0.036","-0.328","-0.624","25.5539268","157.7926332","-91.6159842"
"1.83","183","-0.004","-0.014","-0.006","-0.1145916","-0.6875496","0.6875496"
"1.83","183","0.002","-0.001","-0.001","-0.1718874","-2.2345362","0.1718874"
"1.83","183","-0.034","-0.031","-0.013","-0.286479","-0.9167328","-5.443101"
"1.83","183","-0.011","-0.003","-0.001","0.0572958","-2.4064236","1.432395"
"1.84","184","0.005","-0.037","0.005","2.291832","1.3750992","-5.9014674"
"1.84","184","-0.066","-0.343","-0.58","30.7678446","172.4030622","-96.3142398"
"1.84","184","-0.004","-0.01","-0.003","-0.2291832","-0.8021412","0.6875496"
"1.84","184","0.01","0.007","-0.003","-0.572958","-2.2345362","0.286479"
"1.84","184","-0.033","-0.028","-0.014","0.1145916","-1.4896908","-5.2139178"
"1.84","184","-0.009","-0.005","-0.001","0.6302538","-2.8074942000000003","1.7761698"
"1.85","185","0.008","-0.037","-0.002","-0.0572958","1.8334656","-5.844171599999999"
"1.85","185","-0.112","-0.315","-0.515","41.4248634","182.88819360000002","-99.63739620000001"
"1.85","185","-0.002","-0.006","0.0","-0.3437748","-0.6875496","0.6875496"
"1.85","185","0.014","0.014","0.003","-0.9740286","-2.5210152","0.3437748"
"1.85","185","-0.034","-0.024","-0.012","0.572958","-2.0626488","-4.9847345999999995"
"1.85","185","-0.004","-0.001","0.001","0.0","-3.0366774","2.3491278"
"1.86","186","0.009","-0.045","-0.009","-3.2085648","2.291832","-5.6149884000000005"
"1.86","186","-0.161","-0.28","-0.43","55.3477428","192.3992964","-102.90325680000001"
"1.86","186","-0.003","-0.003","0.0","-0.286479","-0.6302538","0.6302538"
"1.86","186","0.009","0.014","0.002","-0.4583664","-2.3491278","0.572958"
"1.86","186","-0.034","-0.025","-0.015","0.9740286","-2.578311","-4.6982556"
"1.86","186","0.001","-0.007","0.0","-0.286479","-3.2658606","2.4637194"
"1.87","187","0.011","-0.046","-0.009","-4.9274388","2.0626488","-5.2139178"
"1.87","187","-0.198","-0.227","-0.403","65.1453246","200.13422939999998","-107.25773760000001"
"1.87","187","-0.006","0.001","0.0","-0.1718874","-0.5156622","0.6302538"
"1.87","187","0.005","0.007","0.003","0.0","-2.291832","0.859437"
"1.87","187","-0.031","-0.019","-0.01","1.2605076","-3.0366774","-4.4690724"
"1.87","187","0.004","-0.007","0.001","-0.0572958","-2.7501984","2.5210152"
"1.8800000000000001","188","0.02","-0.051","-0.016","-5.786875800000001","1.9480572","-4.8701430000000006"
"1.8800000000000001","188","-0.235","-0.156","-0.424","67.5517482","207.2389086","-112.07058479999999"
"1.8800000000000001","188","0.001","0.01","-0.001","0.0","-0.286479","0.6875496"
"1.8800000000000001","188","-0.002","0.005","-0.003","0.0","-1.7761698","0.9740286"
"1.8800000000000001","188","-0.027","-0.019","-0.004","1.432395","-3.4950438","-4.1825934"
"1.8800000000000001","188","0.008","-0.006","0.0","-0.7448454","-2.2345362","2.6356068"
"1.8900000000000001","189","0.007","-0.061","-0.025","-3.9534102000000004","1.6042824","-4.6409598"
"1.8900000000000001","189","-0.257","-0.12","-0.485","61.2492102","216.4635324","-117.5709816"
"1.8900000000000001","189","0.0","0.01","-0.001","-0.1145916","-0.0572958","0.7448454"
"1.8900000000000001","189","-0.014","0.004","-0.005","-0.0572958","-1.0313244","0.6875496"
"1.8900000000000001","189","-0.021","-0.016","0.01","1.432395","-3.8388186","-3.8961144"
"1.8900000000000001","189","0.012","-0.003","0.0","-0.4583664","-2.6356068","2.6356068"
"1.9000000000000001","190","0.006","-0.061","-0.035","-0.859437","1.0313244","-4.5263682"
"1.9000000000000001","190","-0.28","-0.099","-0.503","51.451628400000004","223.6828032","-122.78489939999999"
"1.9000000000000001","190","-0.004","0.009","-0.002","-0.1718874","-0.4010706","0.6302538"
"1.9000000000000001","190","-0.016","0.002","0.0","-0.0572958","-1.3178034","0.4583664"
"1.9000000000000001","190","-0.02","-0.015","0.018","1.145916","-4.010706000000001","-3.6669312"
"1.9000000000000001","190","0.009","0.007","0.001","-0.572958","-2.1772404","2.578311"
"1.9100000000000001","191","0.008","-0.063","-0.043","3.0939731999999998","0.3437748","-4.6409598"
"1.9100000000000001","191","-0.281","-0.11","-0.514","45.9512316","228.2091714","-124.90484400000001"
"1.9100000000000001","191","-0.003","0.008","0.0","-0.1718874","-0.9167328","0.6875496"
"1.9100000000000001","191","-0.015","-0.002","0.002","-0.1145916","-1.6615782000000001","0.4010706"
"1.9100000000000001","191","-0.022","-0.017","0.001","0.6302538","-4.068001799999999","-3.6096354"
"1.9100000000000001","191","0.005","0.011","0.002","-0.6875496","-1.0886202","2.7501984"
"1.92","192","0.014","-0.049","-0.049","6.1306506","-0.2291832","-4.583664"
"1.92","192","-0.289","-0.186","-0.509","47.1544434","235.94410440000001","-125.36321040000001"
"1.92","192","0.001","0.009","0.001","-0.0572958","-1.0886202","0.859437"
"1.92","192","-0.004","0.003","0.005","-0.1145916","-1.8334656","0.3437748"
"1.92","192","-0.02","-0.02","-0.006","0.1145916","-4.1252976","-3.6096354"
"1.92","192","0.0","0.001","0.002","-0.5156622","-0.859437","2.86479"
"1.93","193","0.015","-0.033","-0.046","6.1879463999999995","-0.6302538","-4.6982556"
"1.93","193","-0.342","-0.184","-0.442","55.003968","240.58506419999998","-126.96749280000002"
"1.93","193","0.0","0.009","0.0","-0.1145916","-1.145916","0.859437"
"1.93","193","0.007","0.011","0.004","-0.1718874","-1.7761698","0.4010706"
"1.93","193","-0.017","-0.023","-0.01","-0.1718874","-4.2398891999999995","-3.4950438"
"1.93","193","-0.004","-0.008","0.006","-0.7448454","-1.0313244","3.2085648"
"1.94","194","0.024","-0.018","-0.04","2.3491278","-0.7448454","-4.583664"
"1.94","194","-0.421","-0.147","-0.373","66.4058322","244.19469959999998","-127.7123382"
"1.94","194","0.0","0.002","-0.001","-0.0572958","-0.859437","0.8021412"
"1.94","194","0.013","0.015","0.001","-0.3437748","-1.8334656","0.5156622"
"1.94","194","-0.015","-0.029","-0.025","-0.1718874","-4.297185","-3.0939731999999998"
"1.94","194","-0.002","-0.006","0.004","-1.6042824","-1.432395","3.7815228000000003"
"1.95","195","0.024","-0.029","-0.035","-3.3804521999999997","-0.6302538","-4.6409598"
"1.95","195","-0.492","-0.083","-0.354","68.58307260000001","248.4918846","-130.634424"
"1.95","195","0.0","0.006","0.003","-0.1145916","-0.572958","0.8021412"
"1.95","195","0.012","0.017","-0.004","-0.4583664","-1.7761698","0.572958"
"1.95","195","-0.021","-0.03","-0.029","0.1145916","-4.4117766","-2.4637194"
"1.95","195","0.003","0.0","0.001","-2.0626488","-2.7501984","4.1825934"
"1.96","196","0.033","-0.03","-0.037","-8.136003599999999","-0.2291832","-4.2398891999999995"
"1.96","196","-0.509","0.012","-0.39","63.25456320000001","252.6171822","-134.12946780000001"
"1.96","196","0.003","0.009","0.007","-0.1718874","-0.286479","0.9167328"
"1.96","196","0.013","0.023","-0.006","-0.286479","-1.3178034","0.572958"
"1.96","196","-0.037","-0.035","-0.025","0.9740286","-4.5263682","-1.8907614000000001"
"1.96","196","0.015","0.001","0.003","-2.291832","-3.6096354","4.583664"
"1.97","197","0.031","-0.04","-0.034","-12.6623718","0.1145916","-4.3544808"
"1.97","197","-0.526","0.105","-0.401","57.467687399999996","258.23217059999996","-136.5931872"
"1.97","197","0.007","0.009","0.006","-0.1718874","0.3437748","0.8021412"
"1.97","197","0.014","0.028","0.0","-0.4583664","-1.2605076","0.3437748"
"1.97","197","-0.046","-0.034","-0.018","1.9480572","-4.6982556","-1.432395"
"1.97","197","0.032","-0.005","0.011","-2.2345362","-4.5263682","4.9274388"
"1.98","198","0.016","-0.067","-0.032","-12.2040054","-0.3437748","-4.4117766"
"1.98","198","-0.555","0.071","-0.351","51.6235158","263.9617506","-139.22879400000002"
"1.98","198","0.008","0.009","-0.001","-0.1718874","1.3178034","0.9167328"
"1.98","198","0.015","0.032","0.004","-0.7448454","-0.9740286","0.286479"
"1.98","198","-0.048","-0.03","-0.02","2.9793816","-5.0420304","-1.0313244"
"1.98","198","0.03","-0.003","0.02","-2.291832","-5.0993262","4.9847345999999995"
"1.99","199","0.014","-0.075","-0.036","-7.6776372","-1.3178034","-3.7815228000000003"
"1.99","199","-0.577","-0.042","-0.323","44.346949200000005","269.5194432","-143.525979"
"1.99","199","0.004","0.0","0.0","0.0","1.6615782000000001","0.8021412"
"1.99","199","0.015","0.03","0.006","-1.0313244","-0.1718874","0.286479"
"1.99","199","-0.046","-0.024","-0.024","4.2398891999999995","-5.3858052","-0.4583664"
"1.99","199","0.022","-0.01","0.024","-3.5523396","-4.7555514","4.7555514"
"2.0","200","0.012","-0.074","-0.039","-3.3231564000000002","-2.4637194","-2.6929026"
"2.0","200","-0.585","-0.128","-0.337","45.4355694","274.733361","-146.677248"
"2.0","200","0.003","-0.003","-0.004","0.0572958","1.6042824","0.859437"
"2.0","200","0.016","0.026","0.008","-1.0886202","0.5156622","0.4583664"
"2.0","200","-0.039","-0.017","-0.017","5.3858052","-5.6149884000000005","0.1718874"
"2.0","200","0.022","-0.023","0.021","-4.8701430000000006","-2.7501984","4.7555514"
"2.0100000000000002","201","0.03","-0.067","-0.037","0.0","-3.5523396","-1.8334656"
"2.0100000000000002","201","-0.566","-0.154","-0.358","55.5196302","278.4002922","-150.8025456"
"2.0100000000000002","201","0.005","-0.004","-0.002","0.1718874","1.6042824","0.6875496"
"2.0100000000000002","201","0.017","0.023","0.009","-1.2605076","1.0886202","0.4583664"
"2.0100000000000002","201","-0.025","-0.012","-0.005","6.4171296","-5.72958","1.2032118"
"2.0100000000000002","201","0.025","-0.011","0.017","-5.5576926","0.0572958","5.2712136"
"2.02","202","0.019","-0.055","-0.032","3.2658606","-4.7555514","-1.0313244"
"2.02","202","-0.577","-0.156","-0.335","62.165943","281.608857","-154.69866000000002"
"2.02","202","0.011","-0.012","-0.002","0.1145916","1.8334656","0.572958"
"2.02","202","0.015","0.017","0.006","-1.3750992","1.4896908","0.6302538"
"2.02","202","-0.013","-0.009","-0.001","7.1046792","-5.5003968","2.6929026"
"2.02","202","0.02","0.005","0.006","-5.786875800000001","2.1772404","5.786875800000001"
"2.0300000000000002","203","0.006","-0.037","-0.026","3.2085648","-5.3285094","-0.286479"
"2.0300000000000002","203","-0.616","-0.078","-0.361","61.9367598","286.9946622","-158.9385492"
"2.0300000000000002","203","0.012","-0.019","-0.007","0.3437748","2.5210152","0.5156622"
"2.0300000000000002","203","0.01","0.004","0.003","-1.6615782000000001","2.1199445999999997","0.6875496"
"2.0300000000000002","203","-0.006","-0.007","0.003","7.448454","-5.0420304","4.4690724"
"2.0300000000000002","203","0.013","0.005","-0.004","-4.1252976","2.291832","6.302538"
"2.04","204","0.005","-0.015","-0.013","-0.5156622","-5.3285094","0.1718874"
"2.04","204","-0.651","-0.043","-0.42","58.0979412","293.29720019999996","-162.5481846"
"2.04","204","0.015","-0.023","-0.008","0.8021412","3.0366774","0.4583664"
"2.04","204","0.011","-0.002","0.0","-2.0626488","2.3491278","0.572958"
"2.04","204","-0.004","-0.003","0.006","7.3911582000000005","-4.5263682","6.0733548"
"2.04","204","0.02","0.005","-0.005","-3.2658606","1.4896908","6.589017"
"2.05","205","0.012","-0.011","-0.012","-5.786875800000001","-4.6409598","0.572958"
"2.05","205","-0.718","-0.05","-0.46","53.3423898","300.86024580000003","-166.3297074"
"2.05","205","0.022","-0.023","-0.008","0.572958","4.1825934","0.4583664"
"2.05","205","0.008","-0.013","0.001","-1.9480572","2.6929026","0.4583664"
"2.05","205","-0.007","0.0","0.006","6.9327917999999995","-3.9534102000000004","7.3338624"
"2.05","205","0.032","0.009","-0.004","-2.4064236","1.145916","6.875496"
"2.06","206","0.03","-0.019","-0.018","-9.167328","-3.8388186","0.5156622"
"2.06","206","-0.809","-0.011","-0.471","59.4157446","310.1421654","-170.3404134"
"2.06","206","0.042","-0.031","-0.001","0.4010706","5.3858052","0.1718874"
"2.06","206","-0.001","-0.022","0.004","-2.4637194","2.6929026","0.0572958"
"2.06","206","-0.006","0.004","0.0","6.2452422","-3.4950438","8.021412000000002"
"2.06","206","0.042","0.019","-0.001","-1.3178034","2.9220857999999996","7.2765666"
"2.09","209","0.045","-0.051","-0.036","-1.4896908","-4.4117766","-3.0366774"
"2.09","209","-0.915","0.089","-0.331","63.6556338","325.3255524","-179.67962880000002"
"2.09","207","0.006","-0.013","-0.002","-0.5156622","6.9900876","0.9167328"
"2.09","209","0.008","-0.009","-0.006","-3.5523396","0.572958","-0.7448454"
"2.09","209","0.012","0.01","0.019","3.437748","-2.578311","8.307891"
"2.09","209","0.014","0.005","0.005","0.859437","5.9587632","8.479778399999999"
"2.1","210","0.049","-0.043","-0.025","2.86479","-4.6982556","-5.0420304"
"2.1","210","-0.995","0.121","-0.214","64.8588456","326.47146840000005","-176.64295140000002"
"2.1","208","-0.002","-0.008","-0.008","0.0572958","6.6463128000000005","0.9740286"
"2.1","210","0.02","-0.006","-0.006","-3.0366774","0.9740286","-0.9740286"
"2.1","210","0.016","0.005","0.013","2.2345362","-2.4064236","7.906820400000001"
"2.1","210","0.011","0.01","0.0","0.8021412","6.1879463999999995","8.9954406"
"2.11","211","0.057","-0.044","-0.019","5.2712136","-4.2398891999999995","-7.161975"
"2.11","211","-1.075","0.113","-0.189","63.025380000000006","324.29422800000003","-176.184585"
"2.11","209","-0.012","0.001","-0.007","0.3437748","5.0420304","0.4010706"
"2.11","211","0.026","-0.003","0.0","-2.1772404","1.3750992","-0.9740286"
"2.11","211","0.023","0.006","0.008","0.8021412","-2.2345362","7.2192708"
"2.11","211","0.021","0.009","0.0","1.2032118","6.4744254","9.3392154"
"2.12","212","0.056","-0.044","-0.018","4.6982556","-3.3804521999999997","-8.2505952"
"2.12","212","-1.108","0.131","-0.164","58.384420199999994","321.142959","-175.5543312"
"2.12","210","-0.02","0.006","-0.001","0.286479","3.724227","-0.2291832"
"2.12","212","0.02","-0.005","-0.003","-1.4896908","2.0626488","-0.6875496"
"2.12","212","0.03","0.006","0.007","-0.4583664","-2.1772404","6.4744254"
"2.12","212","0.03","0.01","0.002","1.432395","5.786875800000001","9.740286000000001"
"2.13","213","0.085","-0.055","-0.022","1.2605076","-2.4637194","-9.0527364"
"2.13","213","-1.142","0.124","-0.073","59.30115299999999","314.7831252","-174.9240774"
"2.13","211","-0.024","0.007","0.004","0.2291832","2.8074942000000003","-0.7448454"
"2.13","213","0.014","-0.005","-0.008","-1.6615782000000001","2.578311","-0.5156622"
"2.13","213","0.04","0.005","0.0","-1.6042824","-2.0626488","5.786875800000001"
"2.13","213","0.043","0.009","0.0","1.3178034","5.6722842","9.797581800000001"
"2.14","214","0.077","-0.075","-0.022","-1.718874","-1.3750992","-10.1986524"
"2.14","214","-1.138","0.158","0.14","66.5204238","300.22999200000004","-172.91872439999997"
"2.14","212","-0.017","0.004","0.004","0.1145916","2.3491278","-0.9167328"
"2.14","214","0.007","-0.003","-0.013","-1.718874","2.6929026","-0.5156622"
"2.14","214","0.049","0.01","0.011","-2.4064236","-1.8907614000000001","5.443101"
"2.14","214","0.045","0.003","-0.003","1.718874","7.563045600000001","9.3392154"
"2.15","215","0.044","-0.079","-0.007","-3.5523396","-1.0313244","-10.599723"
"2.15","215","-1.072","0.208","0.335","76.1461182","276.8533056","-169.42368059999998"
"2.15","213","-0.006","0.002","0.004","0.1718874","1.4896908","-1.0313244"
"2.15","215","0.0","0.002","-0.01","-1.5469865999999999","2.4064236","-0.572958"
"2.15","215","0.05","0.01","0.01","-3.0366774","-1.5469865999999999","5.3858052"
"2.15","215","0.028","-0.006","-0.006","1.432395","11.0580894","8.307891"
"2.16","216","0.041","-0.094","0.006","-5.2139178","-0.6875496","-10.886202"
"2.16","216","-0.963","0.364","0.523","78.49524600000001","248.89295520000002","-164.43894600000002"
"2.16","214","-0.002","0.005","0.004","0.0","1.3178034","-1.0313244"
"2.16","216","-0.008","0.003","-0.001","-1.2605076","1.8907614000000001","-0.6302538"
"2.16","216","0.049","0.006","-0.007","-3.4950438","-0.9167328","5.443101"
"2.16","216","0.009","-0.009","-0.014","0.6875496","12.6623718","7.2192708"
"2.17","217","0.037","-0.111","0.01","-5.3285094","-0.1145916","-10.5424272"
"2.17","217","-0.819","0.501","0.686","75.63045600000001","206.60865479999998","-150.401475"
"2.17","215","-0.001","0.011","0.003","0.1145916","0.9740286","-1.2032118"
"2.17","217","-0.006","0.009","0.006","-0.859437","1.9480572","-0.5156622"
"2.17","217","0.046","0.005","-0.018","-3.6669312","-0.286479","5.5576926"
"2.17","217","-0.014","-0.006","-0.026","-0.6875496","12.375892799999999","5.72958"
"2.18","218","0.018","-0.124","0.01","-4.4117766","0.2291832","-9.3965112"
"2.18","218","-0.646","0.529","0.684","70.76031300000001","168.2204688","-132.926256"
"2.18","216","0.003","0.013","0.0","0.1718874","0.859437","-1.0886202"
"2.18","218","-0.002","0.014","0.006","-0.6875496","2.1772404","-0.572958"
"2.18","218","0.041","0.004","-0.02","-3.4950438","0.1718874","5.5576926"
"2.18","218","-0.041","-0.004","-0.046","-3.3804521999999997","8.9954406","3.2658606"
"2.19","219","0.013","-0.123","0.008","-2.9793816","0.859437","-7.906820400000001"
"2.19","219","-0.479","0.533","0.594","70.5311298","136.82237039999998","-108.63283679999999"
"2.19","217","0.003","0.016","-0.005","0.3437748","0.8021412","-0.859437"
"2.19","219","-0.01","0.003","-0.003","-0.572958","1.9480572","-0.572958"
"2.19","219","0.033","0.004","-0.026","-3.0939731999999998","0.5156622","5.0993262"
"2.19","219","-0.047","-0.004","-0.073","-5.72958","5.3285094","0.0572958"
"2.2","220","0.02","-0.127","-0.001","-0.6302538","0.7448454","-6.016058999999999"
"2.2","220","-0.375","0.534","0.502","70.473834","103.991877","-79.068204"
"2.2","218","0.0","0.018","-0.009","0.4010706","1.145916","-0.7448454"
"2.2","220","-0.009","0.003","-0.013","-0.4010706","1.3178034","-0.6302538"
"2.2","220","0.03","0.004","-0.026","-2.4637194","0.6875496","4.3544808"
"2.2","220","-0.031","-0.01","-0.076","-6.0733548","4.6982556","-3.6096354"
"2.21","221","0.022","-0.123","-0.011","0.859437","0.3437748","-4.4117766"
"2.21","221","-0.266","0.523","0.466","63.6556338","75.8596392","-53.7434604"
"2.21","219","-0.006","0.014","-0.007","0.4583664","1.2605076","-0.6875496"
"2.21","221","0.0","0.004","-0.013","-0.4583664","1.2032118","-0.7448454"
"2.21","221","0.029","0.004","-0.019","-1.718874","0.6302538","3.2658606"
"2.21","221","-0.012","-0.015","-0.05","-6.6463128000000005","7.2192708","-7.3911582000000005"
"2.22","222","0.029","-0.109","-0.01","-0.1718874","0.0","-2.8074942000000003"
"2.22","222","-0.123","0.517","0.537","47.1544434","58.49901179999999","-36.0390582"
"2.22","220","-0.014","0.004","-0.005","0.5156622","1.145916","-0.8021412"
"2.22","222","0.002","0.002","-0.011","-0.4583664","0.6875496","-0.8021412"
"2.22","222","0.039","0.005","-0.01","-0.9167328","0.5156622","2.1199445999999997"
"2.22","222","-0.015","-0.011","-0.024","-7.3911582000000005","8.880849","-9.6829902"
"2.23","223","0.023","-0.092","0.006","-6.1306506","-0.572958","-0.9740286"
"2.23","223","0.019","0.478","0.62","17.18874","48.0711762","-26.585251200000002"
"2.23","221","-0.017","-0.001","-0.003","0.6302538","0.9167328","-0.8021412"
"2.23","223","0.002","0.002","-0.007","-0.3437748","0.572958","-0.859437"
"2.23","223","0.049","0.005","-0.002","-0.3437748","0.4010706","1.3750992"
"2.23","223","-0.036","0.001","-0.001","-7.5057498","8.479778399999999","-10.9434978"
"2.24","224","0.021","-0.097","0.037","-13.349921400000001","-0.9167328","0.572958"
"2.24","224","0.057","0.389","0.667","-9.2819196","45.1490904","-23.6631654"
"2.24","222","-0.017","-0.004","0.0","0.6302538","0.3437748","-0.8021412"
"2.24","224","0.004","0.006","0.003","-0.0572958","0.9740286","-0.7448454"
"2.24","224","0.058","-0.002","-0.013","-0.0572958","0.5156622","1.0313244"
"2.24","224","-0.06","0.008","0.008","-8.021412000000002","5.5003968","-11.688343199999998"
"2.25","225","0.019","-0.113","0.067","-19.6524594","-0.6302538","2.7501984"
"2.25","225","-0.003","0.239","0.596","-24.923673","41.9978214","-24.5798982"
"2.25","223","-0.015","-0.01","0.0","0.6302538","-0.3437748","-0.8021412"
"2.25","225","0.005","0.008","0.011","0.0572958","1.4896908","-0.5156622"
"2.25","225","0.07","-0.008","-0.013","0.0","0.8021412","1.2605076"
"2.25","225","-0.071","-0.004","0.01","-6.875496","1.2032118","-11.3445684"
"2.2600000000000002","226","0.01","-0.138","0.083","-21.9442914","-0.4583664","6.1879463999999995"
"2.2600000000000002","226","-0.041","0.07","0.518","-18.2773602","38.1590028","-27.6738714"
"2.2600000000000002","224","-0.019","-0.011","0.0","0.6875496","-1.3750992","-0.572958"
"2.2600000000000002","226","-0.001","0.008","0.011","0.0","1.432395","-0.4010706"
"2.2600000000000002","226","0.076","-0.012","0.004","-0.2291832","1.3178034","1.7761698"
"2.2600000000000002","226","-0.064","-0.013","0.025","-4.5263682","-4.8701430000000006","-9.969469199999999"
"2.27","227","0.006","-0.14","0.082","-19.5378678","-0.0572958","9.912173399999999"
"2.27","227","-0.068","-0.021","0.471","8.2505952","34.6066632","-29.1062664"
"2.27","225","-0.026","-0.011","0.001","0.4583664","-2.5210152","-0.6302538"
"2.27","227","-0.015","0.0","0.007","-0.4010706","1.0313244","-0.4010706"
"2.27","227","0.065","-0.018","0.023","-0.8021412","2.0053530000000004","2.4064236"
"2.27","227","-0.038","0.003","0.041","-4.068001799999999","-9.969469199999999","-7.448454"
"2.2800000000000002","228","0.005","-0.13","0.071","-14.495837400000001","-0.1145916","13.0634424"
"2.2800000000000002","228","-0.108","-0.056","0.401","46.123119","29.564632800000002","-29.3354496"
"2.2800000000000002","226","-0.029","-0.009","0.008","0.1718874","-3.4950438","-0.572958"
"2.2800000000000002","228","-0.028","-0.008","0.002","-1.2605076","-0.4010706","-0.3437748"
"2.2800000000000002","228","0.047","-0.02","0.034","-1.8334656","2.8074942000000003","2.7501984"
"2.2800000000000002","228","-0.003","0.017","0.05","-3.8388186","-11.0007936","-5.2712136"
"2.29","229","0.013","-0.111","0.045","-5.3858052","-0.8021412","15.9282324"
"2.29","229","-0.113","0.09","0.346","68.2392978","25.0382646","-28.361421"
"2.29","227","-0.029","0.001","0.016","0.0","-4.3544808","-0.4583664"
"2.29","229","-0.034","-0.015","0.003","-1.3750992","-1.7761698","-0.1145916"
"2.29","229","0.023","-0.023","0.04","-2.9793816","3.3804521999999997","2.5210152"
"2.29","229","0.032","0.023","0.062","-2.86479","-10.255948199999999","-2.6929026"
"2.3000000000000003","230","0.027","-0.086","0.025","3.3804521999999997","-1.2605076","16.902261"
"2.3000000000000003","230","-0.073","0.284","0.326","62.452422000000006","21.1421502","-26.4706596"
"2.3000000000000003","228","-0.028","0.02","0.016","-0.3437748","-4.6982556","-0.4010706"
"2.3000000000000003","230","-0.037","-0.022","0.007","-1.718874","-3.151269","-0.0572958"
"2.3000000000000003","230","-0.011","-0.025","0.033","-4.297185","3.6096354","1.4896908"
"2.3000000000000003","230","0.057","0.036","0.064","-2.1199445999999997","-7.906820400000001","-0.286479"
"2.31","231","0.033","-0.06","0.009","10.6570188","-1.6042824","16.329303"
"2.31","231","-0.022","0.409","0.323","23.9496444","17.761698","-23.376686399999997"
"2.31","229","-0.023","0.031","0.013","-0.5156622","-4.6982556","-0.2291832"
"2.31","231","-0.031","-0.023","0.004","-1.432395","-4.3544808","0.0"
"2.31","231","-0.035","-0.026","0.011","-5.5576926","3.3231564000000002","-0.4010706"
"2.31","231","0.063","0.045","0.05","-2.9220857999999996","-4.9274388","0.859437"
"2.32","232","0.035","-0.012","-0.006","15.2406828","-1.4896908","14.495837400000001"
"2.32","232","0.007","0.35","0.3","-11.688343199999998","16.959556799999998","-20.626488"
"2.32","230","-0.012","0.033","0.005","-0.5156622","-4.8128472","0.0"
"2.32","232","-0.027","-0.024","-0.004","-0.9740286","-4.2398891999999995","-0.1145916"
"2.32","232","-0.038","-0.028","-0.011","-6.4171296","2.578311","-2.578311"
"2.32","232","0.048","0.027","0.012","-3.7815228000000003","-2.9793816","1.3178034"
"2.33","233","0.037","0.026","-0.012","13.006146600000001","-0.4010706","11.8029348"
"2.33","233","0.004","0.261","0.293","-34.37748","15.813640800000002","-17.6471064"
"2.33","231","-0.002","0.043","-0.004","-0.286479","-4.5263682","0.2291832"
"2.33","233","-0.022","-0.022","-0.009","-1.145916","-4.1825934","-0.1718874"
"2.33","233","-0.031","-0.027","-0.027","-6.875496","1.5469865999999999","-4.5263682"
"2.33","233","0.028","0.002","-0.023","-3.4950438","-2.4064236","1.145916"
"2.34","234","0.048","0.043","-0.019","6.1879463999999995","1.3750992","9.2246238"
"2.34","234","-0.027","0.135","0.229","-34.37748","11.2872726","-13.292625600000001"
"2.34","232","0.003","0.042","-0.008","-0.286479","-4.1825934","0.4010706"
"2.34","234","-0.014","-0.011","-0.016","-1.0313244","-4.3544808","-0.286479"
"2.34","234","-0.027","-0.026","-0.031","-6.875496","0.572958","-5.786875800000001"
"2.34","234","0.01","-0.006","-0.044","-3.0939731999999998","-2.4637194","0.5156622"
"2.35","235","0.053","0.043","-0.026","-2.578311","3.5523396","6.589017"
"2.35","235","-0.038","0.012","0.187","-18.907614000000002","6.1306506","-11.172681"
"2.35","233","0.01","0.03","-0.009","-0.6302538","-3.6096354","0.4583664"
"2.35","235","0.001","-0.003","-0.018","-0.859437","-4.9847345999999995","-0.3437748"
"2.35","235","-0.02","-0.028","-0.029","-6.6463128000000005","-0.1145916","-6.4171296"
"2.35","235","0.0","-0.012","-0.044","-2.5210152","-2.4637194","-0.6302538"
"2.36","236","0.042","0.02","-0.033","-10.599723","5.5576926","3.3804521999999997"
"2.36","236","-0.03","-0.047","0.135","4.8128472","1.2605076","-8.9954406"
"2.36","234","0.012","0.014","-0.007","-0.9740286","-3.0366774","0.572958"
"2.36","236","0.017","0.005","-0.015","-0.286479","-5.156622","-0.286479"
"2.36","236","-0.021","-0.029","-0.02","-6.1306506","-0.6302538","-6.302538"
"2.36","236","0.0","-0.011","-0.03","-1.3178034","-2.4064236","-1.432395"
"2.37","237","0.03","-0.004","-0.041","-11.8029348","6.1879463999999995","1.432395"
"2.37","237","0.027","-0.002","0.074","34.4347758","-1.7761698","-6.875496"
"2.37","235","0.009","0.004","-0.006","-1.0886202","-2.291832","0.572958"
"2.37","237","0.027","0.017","-0.001","0.0","-5.3285094","-0.1145916"
"2.37","237","-0.027","-0.031","-0.015","-5.6149884000000005","-0.9167328","-5.6722842"
"2.37","237","0.005","-0.008","-0.007","-0.572958","-2.86479","-1.7761698"
"2.38","238","0.016","-0.034","-0.054","-7.2192708","5.6722842","-0.3437748"
"2.38","238","0.076","0.159","0.032","30.366774000000003","-0.6302538","-9.3392154"
"2.38","236","0.005","-0.009","-0.002","-1.3178034","-1.6615782000000001","0.4010706"
"2.38","238","0.031","0.022","0.01","-0.2291832","-4.8128472","-0.0572958"
"2.38","238","-0.031","-0.032","-0.007","-4.9847345999999995","-1.145916","-4.8701430000000006"
"2.38","238","0.009","-0.001","0.016","-0.4583664","-3.2085648","-1.432395"
"2.39","239","0.005","-0.046","-0.054","1.9480572","4.2398891999999995","-1.6042824"
"2.39","239","0.084","0.29","0.011","-2.3491278","3.3231564000000002","-12.5477802"
"2.39","237","0.005","-0.02","0.001","-1.5469865999999999","-0.1718874","0.286479"
"2.39","239","0.027","0.02","0.018","-0.8021412","-3.5523396","0.1145916"
"2.39","239","-0.031","-0.033","-0.016","-4.4117766","-1.3178034","-4.1825934"
"2.39","239","0.001","0.005","0.02","-1.0886202","-3.2085648","-0.7448454"
"2.4","240","-0.001","-0.031","-0.05","10.7716104","2.6356068","-2.2345362"
"2.4","240","0.023","0.288","0.032","-52.3683612","7.5057498","-13.865583599999999"
"2.4","238","0.008","-0.028","0.004","-1.6042824","0.2291832","0.1718874"
"2.4","240","0.013","0.009","0.019","-1.5469865999999999","-2.5210152","0.3437748"
"2.4","240","-0.027","-0.035","-0.027","-3.8961144","-1.5469865999999999","-3.7815228000000003"
"2.4","240","-0.01","0.003","0.012","-1.432395","-2.86479","0.0"
"2.41","241","-0.001","0.012","-0.049","15.3552744","2.1199445999999997","-2.1772404"
"2.41","241","-0.044","0.151","0.033","-71.44786260000001","8.479778399999999","-10.8289062"
"2.41","239","0.005","-0.026","0.004","-1.3750992","0.1718874","0.0572958"
"2.41","241","0.009","0.005","0.011","-2.291832","-2.3491278","0.4010706"
"2.41","241","-0.022","-0.036","-0.032","-3.2085648","-1.6042824","-3.3804521999999997"
"2.41","241","-0.009","-0.009","-0.001","-1.0313244","-3.3231564000000002","0.9740286"
"2.42","242","0.023","0.124","-0.045","-1.8334656","5.6722842","-0.6875496"
"2.42","242","-0.085","-0.111","0.052","-48.70143","4.6982556","-2.7501984"
"2.42","240","0.004","-0.02","0.0","-1.0886202","-0.2291832","0.0"
"2.42","242","0.012","0.004","0.006","-2.2345362","-2.2345362","0.4010706"
"2.42","242","-0.02","-0.04","-0.028","-2.578311","-1.6042824","-3.0939731999999998"
"2.42","242","0.007","-0.01","-0.01","-0.4010706","-3.6669312","1.2605076"
"2.43","243","0.043","0.126","0.013","-30.9970278","8.4224826","-0.572958"
"2.43","243","-0.099","-0.276","-0.012","3.151269","-2.9793816","4.1825934"
"2.43","241","0.007","-0.015","-0.006","-1.0886202","-0.4010706","0.0572958"
"2.43","243","0.009","0.003","0.005","-2.1772404","-1.6042824","0.3437748"
"2.43","243","-0.021","-0.042","-0.017","-2.0053530000000004","-1.432395","-2.8074942000000003"
"2.43","243","0.027","0.001","-0.011","0.0","-3.0366774","1.145916"
"2.44","244","0.056","0.011","0.078","-49.847346","11.172681","-1.7761698"
"2.44","244","-0.059","-0.318","-0.115","54.8320806","-9.2819196","5.786875800000001"
"2.44","242","0.012","-0.006","-0.01","-1.0313244","-0.6875496","0.1145916"
"2.44","244","0.01","0.004","0.0","-2.1772404","-0.859437","0.4583664"
"2.44","244","-0.029","-0.047","0.004","-1.6615782000000001","-1.145916","-2.6929026"
"2.44","244","0.051","0.013","0.002","0.8021412","-0.9740286","0.6875496"
"2.45","245","0.022","-0.065","0.073","-49.9046418","12.8342592","-2.0053530000000004"
"2.45","245","0.014","-0.022","-0.109","87.089616","-10.1986524","2.5210152"
"2.45","243","0.015","0.0","-0.005","-1.0313244","-0.4583664","0.1145916"
"2.45","245","0.009","0.013","-0.001","-2.2345362","-0.8021412","0.572958"
"2.45","245","-0.036","-0.051","0.017","-1.6615782000000001","-0.859437","-2.86479"
"2.45","245","0.066","0.023","0.016","1.718874","1.0886202","0.3437748"
"2.46","246","0.006","-0.081","0.036","-38.0444112","12.375892799999999","-2.2345362"
"2.46","246","0.053","0.184","-0.075","67.6663398","-9.740286000000001","1.2605076"
"2.46","244","0.021","-0.001","0.002","-1.2032118","0.0","0.2291832"
"2.46","246","0.002","0.013","-0.001","-2.2345362","-0.4583664","0.572958"
"2.46","246","-0.034","-0.053","0.021","-1.9480572","-0.6875496","-3.3804521999999997"
"2.46","246","0.065","0.034","0.017","1.2605076","2.86479","0.0572958"
"2.47","247","-0.009","-0.132","0.006","-20.4546006","10.599723","-1.718874"
"2.47","247","0.107","0.258","-0.024","22.746432600000002","-2.5210152","-4.9274388"
"2.47","245","0.02","0.0","0.006","-1.3750992","0.6875496","0.2291832"
"2.47","247","0.001","0.019","0.003","-2.1199445999999997","0.3437748","0.6302538"
"2.47","247","-0.028","-0.056","0.007","-2.4064236","-0.6302538","-4.1825934"
"2.47","247","0.037","0.024","-0.003","0.0","5.3285094","-0.3437748"
"2.48","248","-0.03","-0.183","-0.001","7.5057498","6.4171296","-1.2032118"
"2.48","248","0.026","0.136","-0.01","-18.621135","2.6929026","-7.2765666"
"2.48","246","0.017","0.0","0.005","-1.0886202","1.6042824","0.1718874"
"2.48","248","0.005","0.025","0.007","-2.1772404","0.6302538","0.6302538"
"2.48","248","-0.016","-0.057","-0.02","-2.7501984","-0.6875496","-4.9847345999999995"
"2.48","248","0.002","0.003","-0.02","-0.0572958","6.5317212","-0.9740286"
"2.49","249","-0.021","-0.153","-0.009","31.4553942","2.291832","-0.9740286"
"2.49","249","-0.035","0.059","-0.018","-27.501984","3.4950438","-6.703608600000001"
"2.49","247","0.014","-0.006","-0.001","-0.6302538","2.291832","0.0"
"2.49","249","0.007","0.027","0.006","-2.4064236","0.859437","0.4010706"
"2.49","249","-0.003","-0.051","-0.03","-2.7501984","-0.7448454","-5.6722842"
"2.49","249","-0.016","-0.009","-0.021","0.3437748","5.3285094","-1.0886202"
"2.5","250","-0.01","-0.075","-0.01","44.4615408","-0.4010706","-1.8334656"
"2.5","250","-0.068","0.004","-0.007","-17.6471064","0.9740286","-2.0053530000000004"
"2.5","248","0.007","-0.009","-0.006","-0.4583664","2.578311","-0.1145916"
"2.5","250","0.012","0.028","0.001","-2.4064236","1.0886202","0.2291832"
"2.5","250","-0.002","-0.043","-0.029","-2.1772404","-0.6302538","-6.1306506"
"2.5","250","-0.02","-0.012","-0.015","-0.5156622","3.437748","-1.145916"
"2.5100000000000002","251","-0.008","-0.036","0.006","42.685370999999996","-1.718874","-2.9793816"
"2.5100000000000002","251","-0.053","-0.083","-0.084","1.6615782000000001","-3.8961144","4.010706000000001"
"2.5100000000000002","249","0.001","-0.009","-0.006","-0.286479","2.6929026","-0.1718874"
"2.5100000000000002","251","0.014","0.018","-0.003","-2.1199445999999997","1.3750992","0.1145916"
"2.5100000000000002","251","-0.005","-0.038","-0.037","-1.2032118","-0.4010706","-6.4744254"
"2.5100000000000002","251","-0.012","-0.008","-0.012","-0.8021412","2.1772404","-1.145916"
"2.52","252","0.02","-0.05","0.018","35.2942128","-1.2605076","-4.010706000000001"
"2.52","252","0.007","-0.126","-0.165","21.6578124","-5.786875800000001","7.5057498"
"2.52","250","0.0","-0.01","-0.004","-0.286479","2.7501984","-0.1145916"
"2.52","252","0.017","0.01","-0.004","-1.9480572","1.432395","0.1145916"
"2.52","252","-0.012","-0.032","-0.039","0.0572958","-0.1145916","-6.703608600000001"
"2.52","252","-0.004","0.0","-0.008","-0.6302538","2.0626488","-1.2605076"
"2.5300000000000002","253","0.033","-0.037","-0.026","26.356068","1.3178034","-4.583664"
"2.5300000000000002","253","0.064","-0.037","-0.138","38.1590028","-3.9534102000000004","8.59437"
"2.5300000000000002","251","0.0","-0.013","-0.003","-0.3437748","2.86479","0.0"
"2.5300000000000002","253","0.016","0.002","-0.002","-1.7761698","1.7761698","0.1145916"
"2.5300000000000002","253","-0.021","-0.027","-0.03","1.6615782000000001","0.0572958","-6.875496"
"2.5300000000000002","253","0.002","0.006","-0.001","-0.9740286","2.8074942000000003","-0.9740286"
"2.54","254","0.009","-0.026","-0.076","10.026765","4.4117766","-5.2712136"
"2.54","254","0.082","0.05","-0.09","31.340802600000004","0.4010706","4.9274388"
"2.54","252","-0.001","-0.017","-0.002","-0.3437748","2.9793816","0.0"
"2.54","254","0.013","-0.006","0.0","-1.6615782000000001","2.291832","0.1718874"
"2.54","254","-0.027","-0.024","-0.017","3.0939731999999998","0.1718874","-6.875496"
"2.54","254","0.0","0.004","0.002","-0.5156622","3.2085648","-0.3437748"
"2.5500000000000003","255","0.007","-0.066","-0.084","0.3437748","5.786875800000001","-5.443101"
