"TimeStamp","FrameCounter","AccX","AccY","AccZ","GyrX","GyrY","GyrZ"
"0.01","1","0.341","-0.133","0.098","0.0572958","1.2032118","0.0"
"0.01","1","0.035","-0.163","0.055","1.718874","-0.9167328","1.2032118"
"0.01","1","-0.274","0.195","-0.331","-0.2291832","0.1145916","0.1145916"
"0.01","1","-0.033","0.026","-0.07","0.0","0.0","0.0"
"0.01","1","-0.003","0.006","0.019","-1.0886202","-0.4583664","-0.572958"
"0.01","1","0.001","0.0","0.001","0.0","0.0","0.0"
"0.02","2","0.343","-0.109","0.1","0.1718874","1.6615782000000001","-0.4010706"
"0.02","2","0.002","-0.143","0.028","1.3750992","-2.7501984","0.9740286"
"0.02","2","-0.268","0.194","-0.322","-0.0572958","0.0572958","0.1145916"
"0.02","2","-0.032","0.027","-0.071","0.0","0.0","0.0"
"0.02","2","-0.005","0.01","0.039","-0.4010706","-0.286479","-0.286479"
"0.02","2","0.0","0.0","0.0","0.0","0.0572958","0.0"
"0.03","3","0.339","-0.103","0.094","1.2605076","2.4637194","-0.4583664"
"0.03","3","0.005","-0.143","0.027","0.1145916","-2.291832","0.6875496"
"0.03","3","-0.261","0.192","-0.316","-0.1145916","0.1145916","0.0572958"
"0.03","3","-0.032","0.026","-0.07","0.0","0.0","0.0572958"
"0.03","3","-0.005","0.009","0.04","-0.1145916","-0.2291832","-0.1718874"
"0.03","3","0.0","0.002","-0.001","0.0","-0.0572958","0.0"
"0.04","4","0.339","-0.098","0.073","1.432395","2.86479","-0.572958"
"0.04","4","0.004","-0.138","0.035","-0.1718874","-2.5210152","0.5156622"
"0.04","4","-0.248","0.188","-0.298","0.0","-0.0572958","0.0"
"0.04","4","-0.032","0.025","-0.069","-0.0572958","0.0572958","0.0"
"0.04","4","-0.002","0.008","0.04","0.0","-0.2291832","-0.0572958"
"0.04","4","0.0","0.001","-0.002","0.0572958","0.0","0.0"
"0.05","5","0.35","-0.095","0.062","1.0313244","3.3231564000000002","-1.2032118"
"0.05","5","-0.001","-0.133","0.03","-0.0572958","-2.578311","0.4583664"
"0.05","5","-0.242","0.185","-0.29","0.0","-0.0572958","0.0"
"0.05","5","-0.031","0.026","-0.067","0.0","0.0","0.0"
"0.05","5","0.0","0.009","0.039","0.0","-0.1145916","0.0"
"0.05","5","-0.002","0.003","-0.002","0.1145916","-0.1718874","0.0572958"
"0.06","6","0.355","-0.096","0.06","0.5156622","2.9220857999999996","-2.0053530000000004"
"0.06","6","-0.001","-0.129","0.023","0.286479","-2.2345362","0.572958"
"0.06","6","-0.236","0.183","-0.283","-0.0572958","0.1145916","-0.0572958"
"0.06","6","-0.031","0.025","-0.067","0.0572958","-0.1145916","0.0"
"0.06","6","-0.002","0.008","0.036","0.0","0.0","0.0"
"0.06","6","-0.004","0.0","0.0","0.0","0.0572958","0.0572958"
"0.07","7","0.345","-0.1","0.061","0.859437","1.6042824","-2.291832"
"0.07","7","0.001","-0.127","0.024","0.2291832","-1.5469865999999999","0.9167328"
"0.07","7","-0.231","0.181","-0.277","-0.1145916","0.1145916","-0.0572958"
"0.07","7","-0.031","0.025","-0.066","0.0","0.0572958","0.0572958"
"0.07","7","-0.006","0.008","0.035","0.0","0.2291832","-0.1145916"
"0.07","7","-0.006","0.002","0.0","0.0","0.1145916","0.0"
"0.08","8","0.337","-0.109","0.063","0.3437748","0.572958","-2.1199445999999997"
"0.08","8","0.003","-0.128","0.025","0.6875496","-1.2605076","1.2032118"
"0.08","8","-0.228","0.18","-0.275","-0.4010706","0.3437748","-0.0572958"
"0.08","8","-0.03","0.025","-0.066","-0.0572958","0.0572958","-0.0572958"
"0.08","8","-0.008","0.008","0.035","-0.0572958","0.4010706","-0.286479"
"0.08","8","-0.005","0.001","0.003","0.1145916","-0.0572958","0.0"
"0.09","9","0.34","-0.11","0.08","-0.0572958","0.286479","-1.5469865999999999"
"0.09","9","0.007","-0.135","0.033","0.859437","-0.9167328","1.5469865999999999"
"0.09","9","-0.226","0.179","-0.273","-0.6302538","0.4010706","-0.0572958"
"0.09","9","-0.03","0.025","-0.065","0.0","-0.0572958","0.0"
"0.09","9","-0.011","0.005","0.033","-0.1145916","0.5156622","-0.4583664"
"0.09","9","-0.004","0.001","0.003","0.0","0.0572958","0.0"
"0.1","10","0.337","-0.105","0.09","0.1718874","0.7448454","-1.145916"
"0.1","10","0.01","-0.147","0.034","1.9480572","-1.0886202","1.0313244"
"0.1","10","-0.225","0.177","-0.271","-0.6302538","0.3437748","-0.0572958"
"0.1","10","-0.029","0.024","-0.064","0.0","-0.0572958","0.0"
"0.1","10","-0.013","0.004","0.032","-0.1718874","0.5156622","-0.6875496"
"0.1","10","-0.003","0.001","0.001","0.0","-0.0572958","0.0"
"0.11","11","0.337","-0.099","0.084","1.0313244","2.2345362","-1.145916"
"0.11","11","0.007","-0.148","0.026","1.718874","-1.432395","0.8021412"
"0.11","11","-0.223","0.177","-0.268","-0.3437748","0.2291832","-0.0572958"
"0.11","11","-0.028","0.024","-0.063","0.0","0.0","0.0"
"0.11","11","-0.01","0.003","0.033","-0.0572958","0.4583664","-0.8021412"
"0.11","11","-0.002","0.0","-0.001","0.0","-0.2291832","-0.0572958"
"0.12","12","0.342","-0.094","0.07","0.9740286","3.0939731999999998","-1.432395"
"0.12","12","0.005","-0.146","0.018","1.4896908","-1.8334656","0.6302538"
"0.12","12","-0.221","0.176","-0.265","-0.1145916","0.1145916","-0.1145916"
"0.12","12","-0.029","0.025","-0.063","0.0","0.0572958","0.0"
"0.12","12","-0.006","0.005","0.033","0.0","0.3437748","-0.859437"
"0.12","12","-0.001","0.001","-0.001","0.0","0.0572958","0.0"
"0.13","13","0.351","-0.089","0.052","1.2032118","3.6096354","-2.0626488"
"0.13","13","0.007","-0.145","0.0","1.6042824","-1.6042824","0.286479"
"0.13","13","-0.216","0.174","-0.26","-0.0572958","0.1718874","-0.1145916"
"0.13","13","-0.028","0.024","-0.062","0.0","0.0","0.0"
"0.13","13","-0.004","0.006","0.033","0.0572958","0.3437748","-0.9167328"
"0.13","13","-0.001","0.001","-0.001","0.0","0.0","0.0"
"0.14","14","0.357","-0.091","0.036","1.0886202","3.0366774","-3.151269"
"0.14","14","0.008","-0.14","-0.012","1.2605076","-0.286479","0.3437748"
"0.14","14","-0.212","0.173","-0.256","-0.0572958","0.0572958","-0.1145916"
"0.14","14","-0.027","0.023","-0.062","0.0","0.0","0.0"
"0.14","14","-0.007","0.007","0.033","0.1145916","0.4010706","-0.9167328"
"0.14","14","0.0","0.001","0.0","0.1718874","-0.3437748","-0.0572958"
"0.15","15","0.355","-0.102","0.031","0.5156622","2.0626488","-3.7815228000000003"
"0.15","15","0.009","-0.138","-0.006","1.3178034","1.145916","0.572958"
"0.15","15","-0.207","0.17","-0.25","-0.2291832","0.1718874","-0.1718874"
"0.15","15","-0.028","0.023","-0.06","0.0","0.0572958","0.0"
"0.15","15","-0.012","0.006","0.032","0.1145916","0.4583664","-0.859437"
"0.15","15","0.002","0.001","0.0","0.0","-0.0572958","0.0"
"0.16","16","0.353","-0.111","0.039","-0.0572958","0.8021412","-3.8961144"
"0.16","16","0.013","-0.14","0.007","1.6615782000000001","2.3491278","0.7448454"
"0.16","16","-0.206","0.169","-0.246","-0.1718874","0.2291832","-0.1718874"
"0.16","16","-0.028","0.023","-0.059","0.0","0.0","-0.0572958"
"0.16","16","-0.016","0.006","0.03","0.0","0.4010706","-0.8021412"
"0.16","16","0.003","0.0","0.001","0.0","0.1145916","0.0"
"0.17","17","0.349","-0.118","0.047","-0.0572958","0.0572958","-3.6669312"
"0.17","17","0.015","-0.145","0.022","1.6042824","2.9220857999999996","0.4583664"
"0.17","17","-0.203","0.167","-0.242","0.1718874","0.0","-0.1718874"
"0.17","17","-0.027","0.023","-0.058","0.0","0.0","0.0"
"0.17","17","-0.016","0.007","0.027","0.0","0.286479","-0.6875496"
"0.17","17","0.004","0.0","0.001","0.0","0.0","0.0"
"0.18","18","0.344","-0.12","0.055","0.286479","-0.6302538","-2.9220857999999996"
"0.18","18","0.014","-0.141","0.041","1.718874","2.291832","0.1145916"
"0.18","18","-0.201","0.167","-0.24","0.4583664","-0.286479","-0.0572958"
"0.18","18","-0.027","0.023","-0.058","0.0572958","0.0","0.0"
"0.18","18","-0.013","0.008","0.025","0.0","0.0","-0.5156622"
"0.18","18","0.005","0.001","0.0","0.0","0.0","0.0"
"0.19","19","0.345","-0.117","0.06","1.432395","-0.6875496","-2.0626488"
"0.19","19","0.01","-0.137","0.043","2.1199445999999997","1.6615782000000001","0.1145916"
"0.19","19","-0.199","0.166","-0.239","0.6302538","-0.4010706","0.0"
"0.19","19","-0.027","0.022","-0.057","-0.0572958","0.1718874","0.0"
"0.19","19","-0.009","0.008","0.024","0.0","-0.286479","-0.286479"
"0.19","19","0.006","0.0","-0.002","-0.0572958","0.0","0.0"
"0.2","20","0.343","-0.116","0.053","2.7501984","-0.8021412","-1.4896908"
"0.2","20","0.008","-0.138","0.037","2.2345362","0.859437","0.1145916"
"0.2","20","-0.196","0.165","-0.237","0.4583664","-0.3437748","-0.0572958"
"0.2","20","-0.026","0.023","-0.057","0.0","0.0","0.0"
"0.2","20","-0.002","0.007","0.023","0.0572958","-0.5156622","-0.0572958"
"0.2","20","0.006","0.001","-0.002","0.0","0.0","0.1145916"
"0.21","21","0.345","-0.115","0.048","2.5210152","-0.6302538","-1.2605076"
"0.21","21","0.005","-0.135","0.02","1.6615782000000001","0.286479","0.2291832"
"0.21","21","-0.194","0.163","-0.233","0.1145916","-0.0572958","-0.0572958"
"0.21","21","-0.026","0.023","-0.056","0.0","-0.1145916","0.0"
"0.21","21","0.0","0.007","0.023","0.2291832","-0.6875496","0.1145916"
"0.21","21","0.005","0.001","-0.003","0.0572958","0.0","0.0"
"0.22","22","0.347","-0.113","0.044","1.0886202","-0.9167328","-1.6042824"
"0.22","22","0.008","-0.136","0.012","0.0572958","0.6302538","0.4010706"
"0.22","22","-0.192","0.161","-0.23","0.1718874","-0.0572958","-0.0572958"
"0.22","22","-0.026","0.022","-0.055","0.0","0.1145916","0.0"
"0.22","22","0.003","0.008","0.024","0.4583664","-0.7448454","0.3437748"
"0.22","22","0.004","0.0","-0.001","0.0572958","0.0572958","0.0"
"0.23","23","0.341","-0.114","0.048","-0.1718874","-1.3750992","-2.0053530000000004"
"0.23","23","0.006","-0.135","0.024","-1.2032118","1.3750992","0.6302538"
"0.23","23","-0.188","0.16","-0.225","0.1718874","0.0","-0.1145916"
"0.23","23","-0.026","0.023","-0.055","-0.0572958","0.0572958","-0.0572958"
"0.23","23","0.004","0.007","0.024","0.6875496","-0.6875496","0.5156622"
"0.23","23","0.004","0.002","0.0","0.0572958","0.0","0.0"
"0.24","24","0.339","-0.114","0.059","-1.2032118","-1.7761698","-2.1772404"
"0.24","24","0.006","-0.145","0.038","-1.2605076","1.4896908","0.859437"
"0.24","24","-0.186","0.158","-0.223","0.4583664","-0.286479","-0.1718874"
"0.24","24","-0.025","0.022","-0.055","-0.0572958","0.0","0.0"
"0.24","24","0.005","0.009","0.025","0.9740286","-0.5156622","0.8021412"
"0.24","24","0.002","0.001","0.002","0.0572958","0.0572958","0.0"
"0.25","25","0.338","-0.115","0.07","-1.6042824","-1.6615782000000001","-2.4064236"
"0.25","25","0.009","-0.155","0.044","-0.6875496","1.4896908","0.4010706"
"0.25","25","-0.185","0.158","-0.221","0.6875496","-0.572958","-0.1145916"
"0.25","25","-0.026","0.022","-0.054","0.0","-0.1145916","0.0"
"0.25","25","0.005","0.008","0.027","1.2032118","-0.4010706","0.9740286"
"0.25","25","0.0","0.001","0.002","0.0","0.1718874","0.0"
"0.26","26","0.332","-0.117","0.079","-1.8334656","-1.6042824","-2.3491278"
"0.26","26","0.008","-0.156","0.04","-0.4583664","1.3750992","-0.1718874"
"0.26","26","-0.183","0.157","-0.22","0.6302538","-0.5156622","-0.1718874"
"0.26","26","-0.024","0.021","-0.053","0.0","0.0572958","0.0"
"0.26","26","0.006","0.007","0.03","1.432395","-0.286479","1.0313244"
"0.26","26","0.0","0.001","0.001","0.0","0.0572958","0.0"
"0.27","27","0.332","-0.115","0.083","-0.7448454","-0.859437","-2.0626488"
"0.27","27","0.005","-0.15","0.039","-0.1718874","1.3750992","-0.572958"
"0.27","27","-0.182","0.157","-0.219","0.572958","-0.4010706","-0.1145916"
"0.27","27","-0.025","0.022","-0.053","-0.0572958","0.1145916","0.0"
"0.27","27","0.005","0.005","0.033","1.5469865999999999","-0.0572958","1.0886202"
"0.27","27","0.0","0.0","0.0","0.0","0.0","0.0"
"0.28","28","0.337","-0.116","0.077","0.0","-0.7448454","-1.8334656"
"0.28","28","0.007","-0.146","0.033","0.0","1.4896908","-0.8021412"
"0.28","28","-0.181","0.155","-0.216","0.572958","-0.4583664","-0.1718874"
"0.28","28","-0.024","0.021","-0.053","0.0","0.0572958","0.0"
"0.28","28","0.004","0.006","0.036","1.6615782000000001","0.0572958","0.9740286"
"0.28","28","-0.002","0.0","-0.001","0.0","0.0","0.0"
"0.29","29","0.34","-0.114","0.069","1.6042824","-1.145916","-1.718874"
"0.29","29","0.008","-0.142","0.031","0.4010706","2.0626488","-0.9740286"
"0.29","29","-0.179","0.155","-0.216","0.6875496","-0.5156622","-0.1718874"
"0.29","29","-0.024","0.02","-0.052","-0.0572958","0.0","0.0"
"0.29","29","0.002","0.01","0.034","1.5469865999999999","0.286479","0.7448454"
"0.29","29","-0.003","0.001","-0.002","0.0572958","-0.1145916","0.0572958"
"0.3","30","0.337","-0.123","0.062","1.6615782000000001","-1.8334656","-1.9480572"
"0.3","30","0.005","-0.138","0.039","0.7448454","2.8074942000000003","-0.9167328"
"0.3","30","-0.178","0.155","-0.213","0.6875496","-0.572958","-0.1718874"
"0.3","30","-0.024","0.021","-0.051","0.0","0.0572958","0.0572958"
"0.3","30","-0.002","0.007","0.03","1.3750992","0.4583664","0.4583664"
"0.3","30","-0.004","0.004","-0.001","0.0572958","-0.1145916","-0.0572958"
"0.31","31","0.329","-0.13","0.066","0.4583664","-2.1772404","-1.432395"
"0.31","31","0.0","-0.139","0.05","1.0886202","3.151269","-0.859437"
"0.31","31","-0.177","0.153","-0.211","0.5156622","-0.286479","-0.1718874"
"0.31","31","-0.024","0.02","-0.05","0.0","0.0","0.0"
"0.31","31","-0.003","0.006","0.031","1.2605076","0.5156622","0.1145916"
"0.31","31","-0.005","0.003","0.001","0.1145916","0.0572958","0.0"
"0.32","32","0.329","-0.129","0.079","0.0","-2.3491278","-0.9167328"
"0.32","32","0.003","-0.139","0.066","0.9167328","3.151269","-0.859437"
"0.32","32","-0.175","0.151","-0.211","0.572958","-0.3437748","-0.2291832"
"0.32","32","-0.023","0.021","-0.05","0.0","-0.0572958","0.0"
"0.32","32","0.0","0.009","0.034","1.2032118","0.4583664","-0.2291832"
"0.32","32","-0.005","0.004","0.002","-0.1145916","0.0572958","-0.0572958"
"0.33","33","0.326","-0.127","0.084","0.1718874","-2.1199445999999997","-0.4583664"
"0.33","33","0.007","-0.138","0.073","0.5156622","2.1772404","-1.0886202"
"0.33","33","-0.176","0.152","-0.209","0.8021412","-0.5156622","-0.286479"
"0.33","33","-0.023","0.02","-0.049","0.0","-0.0572958","0.0572958"
"0.33","33","0.004","0.008","0.033","1.0886202","0.4583664","-0.572958"
"0.33","33","-0.004","0.0","0.003","0.0","-0.1718874","0.0"
"0.34","34","0.326","-0.118","0.092","0.4010706","-2.4064236","0.0"
"0.34","34","0.006","-0.135","0.071","-0.1145916","1.2605076","-1.0886202"
"0.34","34","-0.174","0.151","-0.208","0.6875496","-0.5156622","-0.2291832"
"0.34","34","-0.022","0.02","-0.048","0.0","0.0","0.0"
"0.34","34","0.006","0.008","0.032","0.9740286","0.5156622","-0.9167328"
"0.34","34","-0.002","0.002","0.001","0.0","0.0","0.0"
"0.35000000000000003","35","0.327","-0.113","0.097","0.1718874","-1.9480572","0.0"
"0.35000000000000003","35","0.004","-0.132","0.066","-0.5156622","0.5156622","-1.145916"
"0.35000000000000003","35","-0.171","0.151","-0.205","0.1145916","-0.1145916","-0.0572958"
"0.35000000000000003","35","-0.023","0.02","-0.048","0.0","0.0572958","0.0"
"0.35000000000000003","35","0.003","0.007","0.031","0.859437","0.6875496","-1.2605076"
"0.35000000000000003","35","-0.001","0.0","0.0","0.0","0.0572958","0.0"
"0.36","36","0.327","-0.105","0.099","-0.3437748","-1.5469865999999999","-0.0572958"
"0.36","36","0.005","-0.129","0.063","-0.6302538","0.2291832","-0.9740286"
"0.36","36","-0.169","0.149","-0.202","-0.4583664","0.2291832","0.0"
"0.36","36","-0.022","0.02","-0.047","0.0","0.0","0.0"
"0.36","36","0.0","0.005","0.029","0.7448454","0.9740286","-1.5469865999999999"
"0.36","36","0.0","0.001","-0.002","0.0","-0.0572958","0.0"
"0.37","37","0.325","-0.103","0.101","0.0","-0.859437","-0.4010706"
"0.37","37","0.006","-0.128","0.061","-0.3437748","0.0","-0.8021412"
"0.37","37","-0.167","0.147","-0.199","-0.5156622","0.3437748","0.0"
"0.37","37","-0.022","0.019","-0.048","0.0","0.0","-0.0572958"
"0.37","37","-0.003","0.004","0.029","0.6875496","1.145916","-1.718874"
"0.37","37","0.0","0.001","-0.001","0.0","0.0572958","0.0"
"0.38","38","0.325","-0.107","0.097","-0.1145916","-0.1718874","-0.5156622"
"0.38","38","0.005","-0.127","0.057","0.0","0.0","-0.572958"
"0.38","38","-0.164","0.145","-0.196","-0.2291832","0.1718874","0.0"
"0.38","38","-0.022","0.019","-0.047","0.0","0.0","0.0"
"0.38","38","-0.007","0.006","0.028","0.6302538","1.3178034","-1.7761698"
"0.38","38","0.001","0.003","0.0","-0.0572958","0.1718874","0.0572958"
"0.39","39","0.324","-0.112","0.094","-1.0313244","0.1718874","-0.9167328"
"0.39","39","0.004","-0.129","0.054","-0.1718874","0.0","-0.4010706"
"0.39","39","-0.156","0.14","-0.186","-0.0572958","0.0","0.0"
"0.39","39","-0.022","0.019","-0.046","0.0572958","0.0","0.0"
"0.39","39","-0.008","0.008","0.024","0.6302538","1.3750992","-1.718874"
"0.39","39","0.002","0.003","0.001","0.0","-0.0572958","0.0"
"0.4","40","0.32","-0.118","0.095","-1.7761698","0.3437748","-0.9740286"
"0.4","40","0.005","-0.132","0.06","-0.286479","-0.2291832","-0.4010706"
"0.4","40","-0.15","0.137","-0.18","0.0","0.0","0.0"
"0.4","40","-0.022","0.019","-0.045","0.0","0.0","0.0"
"0.4","40","-0.009","0.01","0.021","0.6302538","1.3750992","-1.6042824"
"0.4","40","0.003","0.0","0.003","0.0572958","0.0572958","0.0"
"0.41000000000000003","41","0.321","-0.12","0.095","-1.6615782000000001","0.6875496","-0.4583664"
"0.41000000000000003","41","0.006","-0.134","0.063","0.0","-0.6875496","-0.8021412"
"0.41000000000000003","41","-0.143","0.132","-0.171","0.0572958","-0.0572958","-0.0572958"
"0.41000000000000003","41","-0.021","0.019","-0.045","0.0","0.0","0.0"
"0.41000000000000003","41","-0.009","0.01","0.024","0.7448454","1.3178034","-1.5469865999999999"
"0.41000000000000003","41","0.005","0.001","0.0","0.0","0.1718874","0.0572958"
"0.42","42","0.323","-0.115","0.094","-1.145916","0.6302538","0.1145916"
"0.42","42","0.005","-0.135","0.057","0.4583664","-1.0886202","-1.145916"
"0.42","42","-0.136","0.127","-0.163","-0.1718874","0.1145916","0.0"
"0.42","42","-0.02","0.019","-0.043","0.0","0.0","0.0"
"0.42","42","-0.009","0.011","0.027","0.859437","1.3178034","-1.5469865999999999"
"0.42","42","0.004","-0.001","0.0","-0.1145916","0.0","0.0"
"0.43","43","0.325","-0.108","0.091","-0.4010706","1.2032118","0.6302538"
"0.43","43","0.003","-0.13","0.045","0.0572958","-1.4896908","-1.3750992"
"0.43","43","-0.134","0.126","-0.159","-0.3437748","0.2291832","0.0"
"0.43","43","-0.02","0.018","-0.044","-0.0572958","0.0","0.0"
"0.43","43","-0.011","0.01","0.03","0.9740286","1.2605076","-1.5469865999999999"
"0.43","43","0.002","0.002","-0.001","0.0572958","-0.0572958","0.0"
"0.44","44","0.329","-0.1","0.083","0.0","1.6042824","0.8021412"
"0.44","44","0.004","-0.125","0.036","-0.2291832","-1.432395","-1.432395"
"0.44","44","-0.133","0.124","-0.158","-0.3437748","0.2291832","0.0"
"0.44","44","-0.019","0.017","-0.043","0.0","-0.1145916","0.0"
"0.44","44","-0.012","0.009","0.033","0.9167328","1.2032118","-1.5469865999999999"
"0.44","44","0.001","0.0","-0.002","-0.1718874","0.1718874","0.0"
"0.45","45","0.332","-0.092","0.074","0.4010706","2.0626488","0.4583664"
"0.45","45","0.002","-0.116","0.034","-0.3437748","-1.0313244","-1.3750992"
"0.45","45","-0.129","0.123","-0.155","-0.1145916","0.0572958","0.0"
"0.45","45","-0.02","0.018","-0.043","0.0","0.0","0.0"
"0.45","45","-0.014","0.008","0.035","0.8021412","1.145916","-1.5469865999999999"
"0.45","45","0.0","0.002","-0.001","-0.0572958","-0.0572958","0.0"
"0.46","46","0.336","-0.09","0.064","0.9740286","2.0053530000000004","0.2291832"
"0.46","46","0.0","-0.111","0.032","0.0572958","-0.9740286","-0.8021412"
"0.46","46","-0.127","0.121","-0.152","-0.1145916","0.0572958","0.0"
"0.46","46","-0.019","0.018","-0.042","0.0","0.0","0.0"
"0.46","46","-0.013","0.007","0.036","0.6302538","0.9740286","-1.4896908"
"0.46","46","-0.001","0.001","0.0","0.0572958","-0.0572958","0.0"
"0.47000000000000003","47","0.338","-0.094","0.045","0.0572958","1.4896908","-0.4010706"
"0.47000000000000003","47","0.004","-0.111","0.032","0.6302538","-0.4010706","0.0"
"0.47000000000000003","47","-0.124","0.118","-0.149","0.0","0.1145916","-0.0572958"
"0.47000000000000003","47","-0.02","0.017","-0.041","0.0","0.0","0.0"
"0.47000000000000003","47","-0.011","0.007","0.034","0.286479","0.8021412","-1.3750992"
"0.47000000000000003","47","-0.002","0.003","0.002","0.0","0.1145916","0.0"
"0.48","48","0.334","-0.097","0.05","-2.1772404","0.6875496","-1.0886202"
"0.48","48","0.003","-0.117","0.034","1.0886202","-0.3437748","0.4010706"
"0.48","48","-0.123","0.117","-0.146","0.0572958","-0.1145916","0.0"
"0.48","48","-0.019","0.018","-0.04","0.0","0.0","0.0"
"0.48","48","-0.01","0.007","0.031","-0.0572958","0.572958","-1.2032118"
"0.48","48","-0.003","0.0","0.003","-0.0572958","0.1718874","-0.0572958"
"0.49","49","0.333","-0.098","0.069","-2.5210152","0.3437748","-1.2032118"
"0.49","49","0.006","-0.128","0.029","0.9740286","-0.3437748","0.4010706"
"0.49","49","-0.119","0.115","-0.142","0.1145916","-0.1145916","0.0"
"0.49","49","-0.019","0.018","-0.04","0.0","0.0","-0.0572958"
"0.49","49","-0.007","0.006","0.026","-0.3437748","0.4010706","-1.0886202"
"0.49","49","-0.003","0.0","0.001","0.0","0.0","0.0"
"0.5","50","0.327","-0.099","0.08","-0.8021412","0.3437748","-0.6875496"
"0.5","50","0.005","-0.13","0.032","0.7448454","-0.1718874","0.1145916"
"0.5","50","-0.117","0.113","-0.139","0.3437748","-0.1718874","0.0"
"0.5","50","-0.019","0.017","-0.039","0.0","0.0","0.0"
"0.5","50","-0.007","0.004","0.022","-0.6302538","0.286479","-1.0313244"
"0.5","50","-0.003","0.0","-0.001","-0.0572958","0.0572958","0.0"
"0.51","51","0.33","-0.101","0.077","1.6615782000000001","0.4010706","0.0"
"0.51","51","0.005","-0.127","0.028","0.4583664","-0.1718874","0.0"
"0.51","51","-0.115","0.112","-0.138","0.3437748","-0.2291832","0.0"
"0.51","51","-0.019","0.017","-0.039","0.0572958","0.0","0.0"
"0.51","51","-0.007","0.005","0.021","-0.859437","0.1718874","-0.9740286"
"0.51","51","-0.002","0.0","-0.003","-0.1145916","0.1145916","0.0"
"0.52","52","0.332","-0.099","0.065","2.291832","0.572958","0.2291832"
"0.52","52","0.009","-0.127","0.028","0.1145916","0.0572958","0.0"
"0.52","52","-0.114","0.11","-0.136","0.4583664","-0.286479","0.0"
"0.52","52","-0.018","0.018","-0.039","0.0","0.0","0.0"
"0.52","52","-0.005","0.005","0.02","-0.9740286","0.0572958","-0.859437"
"0.52","52","-0.002","0.0","-0.004","0.0","-0.0572958","0.0"
"0.53","53","0.33","-0.096","0.055","2.0053530000000004","0.6875496","0.0"
"0.53","53","0.005","-0.123","0.026","0.0","0.0572958","-0.1145916"
"0.53","53","-0.113","0.11","-0.135","0.6875496","-0.286479","-0.0572958"
"0.53","53","-0.018","0.017","-0.039","0.0","0.0","0.0572958"
"0.53","53","-0.005","0.004","0.017","-1.0886202","0.0","-0.6875496"
"0.53","53","-0.001","0.001","-0.004","0.0","0.0","0.0"
"0.54","54","0.328","-0.094","0.05","0.9740286","0.4010706","-0.6302538"
"0.54","54","0.002","-0.119","0.027","0.1145916","0.2291832","0.0"
"0.54","54","-0.112","0.111","-0.134","0.6302538","-0.4010706","-0.0572958"
"0.54","54","-0.019","0.017","-0.039","0.0","0.0","-0.0572958"
"0.54","54","-0.002","0.002","0.015","-1.0886202","0.0","-0.572958"
"0.54","54","-0.001","0.002","-0.001","-0.0572958","0.1718874","0.0"
"0.55","55","0.327","-0.096","0.049","0.2291832","0.1718874","-0.9740286"
"0.55","55","0.005","-0.121","0.025","0.2291832","0.1145916","0.2291832"
"0.55","55","-0.112","0.109","-0.133","0.4583664","-0.2291832","0.0"
"0.55","55","-0.018","0.015","-0.038","0.0","-0.0572958","0.0"
"0.55","55","0.001","0.004","0.013","-1.0313244","-0.0572958","-0.3437748"
"0.55","55","0.0","0.002","0.004","0.0","0.0","0.0"
"0.56","56","0.325","-0.097","0.058","-0.572958","-0.4583664","-1.2605076"
"0.56","56","0.004","-0.121","0.024","0.4583664","0.2291832","0.2291832"
"0.56","56","-0.109","0.108","-0.131","0.286479","-0.1145916","-0.0572958"
"0.56","56","-0.018","0.017","-0.037","0.0","0.0","0.0"
"0.56","56","0.004","0.002","0.012","-0.9167328","0.0","-0.1718874"
"0.56","56","0.002","0.003","0.005","0.0","0.0","0.0"
"0.5700000000000001","57","0.319","-0.099","0.071","-0.6302538","-0.7448454","-0.9167328"
"0.5700000000000001","57","0.004","-0.122","0.023","0.6302538","0.572958","0.4010706"
"0.5700000000000001","57","-0.107","0.106","-0.128","0.1718874","-0.0572958","-0.0572958"
"0.5700000000000001","57","-0.017","0.016","-0.037","0.0","0.0572958","0.0"
"0.5700000000000001","57","0.002","0.004","0.01","-0.7448454","0.1145916","-0.1145916"
"0.5700000000000001","57","0.005","0.001","0.004","-0.0572958","0.1718874","-0.0572958"
"0.58","58","0.318","-0.098","0.079","0.4583664","-0.6302538","-0.6875496"
"0.58","58","0.002","-0.128","0.02","0.9740286","0.8021412","0.4583664"
"0.58","58","-0.103","0.103","-0.124","0.0572958","-0.1145916","0.0"
"0.58","58","-0.017","0.016","-0.036","0.1145916","-0.0572958","0.0"
"0.58","58","0.0","0.004","0.009","-0.5156622","0.286479","-0.0572958"
"0.58","58","0.009","0.0","0.0","0.0","-0.0572958","0.0"
"0.59","59","0.317","-0.101","0.077","1.5469865999999999","0.0","-0.572958"
"0.59","59","0.004","-0.133","0.021","0.4010706","1.5469865999999999","0.286479"
"0.59","59","-0.101","0.101","-0.12","0.2291832","-0.0572958","0.0"
"0.59","59","-0.017","0.016","-0.036","0.0","0.0","0.0"
"0.59","59","-0.004","0.002","0.01","-0.286479","0.4583664","-0.1145916"
"0.59","59","0.009","0.002","-0.002","0.0","-0.0572958","0.0"
"0.6","60","0.317","-0.099","0.071","1.6042824","0.1718874","-0.2291832"
"0.6","60","0.013","-0.136","0.034","-0.3437748","1.5469865999999999","0.0"
"0.6","60","-0.099","0.099","-0.119","0.2291832","-0.1718874","0.0"
"0.6","60","-0.017","0.016","-0.035","0.0","0.0572958","0.0"
"0.6","60","-0.004","0.004","0.011","0.0","0.572958","-0.1718874"
"0.6","60","0.009","0.0","-0.004","0.0","0.1145916","0.0"
"0.61","61","0.325","-0.094","0.071","1.718874","0.6875496","-0.4583664"
"0.61","61","0.009","-0.131","0.037","0.0572958","1.3178034","-0.3437748"
"0.61","61","-0.099","0.098","-0.117","0.1145916","-0.1145916","0.0"
"0.61","61","-0.017","0.016","-0.035","0.0","0.0572958","0.0"
"0.61","61","-0.006","0.004","0.012","0.2291832","0.6875496","-0.286479"
"0.61","61","0.008","0.0","-0.003","0.0","0.2291832","0.0"
"0.62","62","0.324","-0.092","0.065","1.718874","0.7448454","-0.9167328"
"0.62","62","0.003","-0.124","0.033","0.5156622","0.859437","-0.4583664"
"0.62","62","-0.097","0.097","-0.115","0.1718874","-0.2291832","0.0"
"0.62","62","-0.016","0.016","-0.035","0.0","-0.0572958","0.0"
"0.62","62","-0.009","0.003","0.014","0.5156622","0.7448454","-0.3437748"
"0.62","62","0.007","0.002","0.0","0.1145916","-0.2291832","0.0"
"0.63","63","0.321","-0.098","0.064","2.578311","0.572958","-1.0313244"
"0.63","63","0.008","-0.122","0.031","1.432395","1.145916","-0.286479"
"0.63","63","-0.092","0.095","-0.11","-0.0572958","0.0","0.0"
"0.63","63","-0.016","0.015","-0.035","0.0572958","-0.0572958","-0.0572958"
"0.63","63","-0.011","0.005","0.018","0.7448454","0.7448454","-0.4010706"
"0.63","63","0.006","0.002","0.002","0.0572958","0.1145916","0.0"
"0.64","64","0.317","-0.104","0.054","2.8074942000000003","0.6302538","-1.0886202"
"0.64","64","0.006","-0.121","0.021","1.3178034","1.2605076","-0.1718874"
"0.64","64","-0.091","0.094","-0.109","-0.286479","0.2291832","0.0"
"0.64","64","-0.017","0.016","-0.034","0.0","0.0572958","0.0"
"0.64","64","-0.01","0.006","0.02","0.9740286","0.572958","-0.3437748"
"0.64","64","0.004","0.002","0.003","-0.0572958","0.1718874","0.0"
"0.65","65","0.318","-0.113","0.044","2.2345362","0.286479","-1.0313244"
"0.65","65","0.006","-0.126","0.026","-0.0572958","1.6615782000000001","0.0572958"
"0.65","65","-0.09","0.092","-0.107","-0.572958","0.286479","0.0"
"0.65","65","-0.016","0.015","-0.033","0.0","0.0572958","0.0"
"0.65","65","-0.006","0.005","0.018","1.0886202","0.3437748","-0.286479"
"0.65","65","0.002","0.001","0.002","0.1145916","0.0","0.0"
"0.66","66","0.319","-0.117","0.038","0.7448454","-0.286479","-0.5156622"
"0.66","66","0.006","-0.127","0.036","-1.3750992","1.3750992","0.0"
"0.66","66","-0.09","0.091","-0.107","-0.572958","0.286479","0.0"
"0.66","66","-0.015","0.015","-0.034","0.0","0.0","0.0"
"0.66","66","-0.002","0.004","0.022","1.2605076","0.1718874","-0.1718874"
"0.66","66","0.0","0.001","0.0","0.1145916","0.0","0.0"
"0.67","67","0.321","-0.114","0.042","-1.432395","-0.9740286","-0.2291832"
"0.67","67","0.003","-0.128","0.042","-1.3750992","0.9740286","0.0"
"0.67","67","-0.089","0.089","-0.106","-0.3437748","0.1718874","0.0"
"0.67","67","-0.016","0.015","-0.033","0.0","0.0","0.0"
"0.67","67","0.0","0.006","0.027","1.432395","0.1145916","-0.1718874"
"0.67","67","-0.003","0.001","-0.001","0.0","0.0572958","0.0"
"0.68","68","0.321","-0.105","0.053","-2.3491278","-1.432395","0.0572958"
"0.68","68","0.004","-0.129","0.033","-0.2291832","0.859437","-0.1718874"
"0.68","68","-0.088","0.089","-0.105","0.1145916","-0.0572958","0.0"
"0.68","68","-0.015","0.015","-0.033","0.0","0.0572958","0.0"
"0.68","68","0.002","0.006","0.029","1.4896908","0.1718874","-0.1718874"
"0.68","68","-0.006","0.001","-0.002","0.0","-0.0572958","0.0"
"0.6900000000000001","69","0.323","-0.093","0.064","-1.3750992","-1.2605076","0.0"
"0.6900000000000001","69","0.004","-0.124","0.019","0.4583664","1.432395","-0.1145916"
"0.6900000000000001","69","-0.086","0.089","-0.102","0.3437748","-0.1718874","0.0"
"0.6900000000000001","69","-0.015","0.016","-0.032","0.0","0.0","0.0"
"0.6900000000000001","69","0.0","0.006","0.029","1.3750992","0.4010706","-0.2291832"
"0.6900000000000001","69","-0.008","0.0","-0.002","0.0572958","0.0572958","0.0"
"0.7000000000000001","70","0.325","-0.088","0.064","0.0572958","-1.3750992","0.0"
"0.7000000000000001","70","0.006","-0.122","0.017","0.4010706","2.1772404","-0.0572958"
"0.7000000000000001","70","-0.084","0.088","-0.102","0.286479","-0.1145916","0.0572958"
"0.7000000000000001","70","-0.013","0.015","-0.033","0.0","-0.0572958","0.0"
"0.7000000000000001","70","-0.006","0.007","0.029","1.2032118","0.572958","-0.286479"
"0.7000000000000001","70","-0.009","0.0","0.0","0.0","0.0572958","0.0572958"
"0.71","71","0.325","-0.087","0.064","1.432395","-1.4896908","-0.5156622"
"0.71","71","0.009","-0.118","0.029","0.286479","2.86479","0.0572958"
"0.71","71","-0.083","0.085","-0.098","-0.0572958","0.0572958","0.0"
"0.71","71","-0.014","0.015","-0.032","0.0572958","0.0","0.0"
"0.71","71","-0.014","0.006","0.029","0.859437","0.7448454","-0.4010706"
"0.71","71","-0.009","0.0","0.001","0.0","0.0","0.0"
"0.72","72","0.321","-0.096","0.058","2.0626488","-1.0886202","-1.0886202"
"0.72","72","0.011","-0.123","0.042","0.8021412","3.0939731999999998","0.1718874"
"0.72","72","-0.081","0.082","-0.095","-0.1718874","0.1145916","0.0"
"0.72","72","-0.015","0.014","-0.032","0.0","0.0","0.0"
"0.72","72","-0.016","0.006","0.022","0.572958","0.6875496","-0.4010706"
"0.72","72","-0.008","0.001","0.002","0.0572958","-0.1145916","0.0"
"0.73","73","0.32","-0.104","0.058","1.8907614000000001","-0.7448454","-1.5469865999999999"
"0.73","73","0.009","-0.128","0.049","0.2291832","2.3491278","0.2291832"
"0.73","73","-0.08","0.082","-0.095","0.0","-0.1145916","0.0"
"0.73","73","-0.014","0.014","-0.031","0.1145916","-0.1145916","0.0"
"0.73","73","-0.015","0.006","0.019","0.2291832","0.4583664","-0.286479"
"0.73","73","-0.007","0.001","0.002","-0.0572958","0.1718874","0.0"
"0.74","74","0.319","-0.111","0.053","1.6615782000000001","-0.286479","-1.432395"
"0.74","74","0.007","-0.127","0.053","-0.286479","1.6615782000000001","0.0572958"
"0.74","74","-0.079","0.081","-0.094","0.3437748","-0.1145916","0.0"
"0.74","74","-0.014","0.014","-0.03","0.0","-0.0572958","0.0"
"0.74","74","-0.009","0.007","0.015","0.0572958","0.1145916","-0.1718874"
"0.74","74","-0.006","0.001","0.0","0.0","0.0","0.0"
"0.75","75","0.318","-0.117","0.05","0.9167328","-0.6302538","-1.0313244"
"0.75","75","0.01","-0.132","0.051","-0.2291832","1.0313244","0.1718874"
"0.75","75","-0.077","0.08","-0.091","0.4010706","-0.3437748","0.0"
"0.75","75","-0.014","0.014","-0.03","0.0","0.1145916","0.0"
"0.75","75","-0.003","0.007","0.012","0.0","-0.2291832","0.0"
"0.75","75","-0.004","0.001","0.0","0.0572958","-0.0572958","0.0572958"
"0.76","76","0.316","-0.119","0.049","0.2291832","-0.9740286","-0.286479"
"0.76","76","0.005","-0.13","0.041","-0.1145916","1.145916","-0.286479"
"0.76","76","-0.076","0.08","-0.09","0.4583664","-0.1718874","0.0"
"0.76","76","-0.014","0.014","-0.029","-0.0572958","0.0","0.0"
"0.76","76","0.0","0.008","0.013","0.0","-0.4583664","0.0572958"
"0.76","76","-0.002","0.001","-0.002","0.0","0.1145916","0.0"
"0.77","77","0.321","-0.115","0.049","0.7448454","-1.4896908","0.572958"
"0.77","77","0.006","-0.124","0.04","-1.0313244","1.8334656","-0.4010706"
"0.77","77","-0.076","0.079","-0.09","0.4583664","-0.2291832","0.0"
"0.77","77","-0.014","0.014","-0.029","0.0","-0.0572958","0.0"
"0.77","77","0.004","0.007","0.016","0.0","-0.5156622","0.1718874"
"0.77","77","0.0","0.0","-0.002","0.0","0.0572958","0.0572958"
"0.78","78","0.314","-0.113","0.044","0.4010706","-2.4064236","0.7448454"
"0.78","78","0.008","-0.116","0.057","-1.3750992","1.7761698","-0.4583664"
"0.78","78","-0.075","0.078","-0.089","0.4583664","-0.1718874","0.0"
"0.78","78","-0.014","0.014","-0.029","0.0","0.0572958","0.0"
"0.78","78","0.005","0.007","0.017","0.0","-0.5156622","0.286479"
"0.78","78","0.003","0.001","0.0","0.0","0.0","0.0572958"
"0.79","79","0.312","-0.108","0.053","-0.572958","-3.0939731999999998","1.145916"
"0.79","79","0.006","-0.106","0.068","-0.286479","1.3178034","-0.286479"
"0.79","79","-0.074","0.077","-0.088","0.9740286","-0.6302538","0.0"
"0.79","79","-0.014","0.014","-0.029","0.0","0.0","0.0"
"0.79","79","0.002","0.006","0.016","0.0572958","-0.4010706","0.3437748"
"0.79","79","0.005","0.001","0.0","-0.1145916","0.1718874","0.0"
"0.8","80","0.312","-0.1","0.068","-0.9740286","-2.9220857999999996","1.0886202"
"0.8","80","0.003","-0.103","0.064","0.859437","0.1145916","0.4583664"
"0.8","80","-0.075","0.077","-0.088","1.3750992","-0.859437","0.0"
"0.8","80","-0.013","0.014","-0.028","0.0","0.0","0.0"
"0.8","80","0.0","0.006","0.016","0.0","-0.3437748","0.4010706"
"0.8","80","0.006","0.002","0.001","0.0","0.1145916","0.0"
"0.81","81","0.313","-0.096","0.071","-0.7448454","-2.2345362","0.9167328"
"0.81","81","0.003","-0.105","0.054","0.7448454","-0.3437748","0.859437"
"0.81","81","-0.073","0.077","-0.087","1.4896908","-0.9740286","0.0572958"
"0.81","81","-0.013","0.014","-0.028","0.0","-0.2291832","0.0"
"0.81","81","0.0","0.005","0.017","0.0","-0.2291832","0.5156622"
"0.81","81","0.008","0.001","0.002","0.0","0.0","0.0"
"0.8200000000000001","82","0.312","-0.094","0.068","-1.2032118","-1.8907614000000001","0.4010706"
"0.8200000000000001","82","0.003","-0.114","0.046","-0.0572958","-0.6302538","1.3750992"
"0.8200000000000001","82","-0.073","0.078","-0.088","1.4896908","-0.9740286","0.1718874"
"0.8200000000000001","82","-0.013","0.014","-0.027","0.0","-0.0572958","0.0"
"0.8200000000000001","82","0.0","0.003","0.016","0.0","-0.2291832","0.5156622"
"0.8200000000000001","82","0.008","0.001","0.0","0.0","0.0572958","0.0"
"0.8300000000000001","83","0.313","-0.093","0.065","-1.7761698","-1.3750992","-0.1718874"
"0.8300000000000001","83","0.005","-0.128","0.039","-0.859437","-1.0313244","1.432395"
"0.8300000000000001","83","-0.072","0.077","-0.087","0.9167328","-0.6302538","0.1145916"
"0.8300000000000001","83","-0.013","0.014","-0.028","-0.0572958","0.0","0.0572958"
"0.8300000000000001","83","0.001","0.002","0.017","0.0","-0.286479","0.572958"
"0.8300000000000001","83","0.008","0.001","-0.001","-0.0572958","0.1145916","-0.0572958"
"0.84","84","0.313","-0.093","0.07","-2.1199445999999997","-1.0886202","-0.6302538"
"0.84","84","0.006","-0.134","0.036","-1.2605076","-0.8021412","1.0886202"
"0.84","84","-0.072","0.077","-0.087","0.5156622","-0.4583664","0.1718874"
"0.84","84","-0.013","0.014","-0.028","0.0","0.0","0.0"
"0.84","84","0.004","0.003","0.018","0.0","-0.286479","0.5156622"
"0.84","84","0.008","0.001","-0.001","0.0","-0.1145916","0.0"
"0.85","85","0.312","-0.099","0.074","-0.9167328","-0.5156622","-0.7448454"
"0.85","85","0.01","-0.142","0.039","-0.9740286","-0.286479","0.3437748"
"0.85","85","-0.073","0.076","-0.086","0.286479","-0.286479","0.1145916"
"0.85","85","-0.014","0.013","-0.027","0.0","-0.2291832","0.0"
"0.85","85","0.006","0.006","0.015","-0.0572958","-0.286479","0.4583664"
"0.85","85","0.006","0.001","-0.001","0.1145916","-0.1145916","0.0"
"0.86","86","0.312","-0.104","0.065","0.286479","-0.7448454","-0.286479"
"0.86","86","0.004","-0.136","0.039","0.0","0.286479","-0.286479"
"0.86","86","-0.07","0.074","-0.085","0.0","0.1145916","0.0572958"
"0.86","86","-0.014","0.013","-0.027","0.0","0.0","0.0"
"0.86","86","0.004","0.001","0.011","-0.2291832","-0.1718874","0.3437748"
"0.86","86","0.005","0.001","0.0","0.0","0.1718874","0.0"
"0.87","87","0.311","-0.109","0.062","0.6875496","-1.432395","0.3437748"
"0.87","87","0.0","-0.132","0.039","0.5156622","0.859437","-0.3437748"
"0.87","87","-0.069","0.074","-0.083","-0.1718874","0.1145916","0.0"
"0.87","87","-0.014","0.013","-0.027","0.0","0.1145916","-0.0572958"
"0.87","87","0.002","0.001","0.013","-0.2291832","-0.0572958","0.1718874"
"0.87","87","0.003","0.0","0.0","0.0","0.0","0.0572958"
"0.88","88","0.307","-0.108","0.062","0.1145916","-2.0626488","0.6302538"
"0.88","88","0.004","-0.128","0.043","0.4583664","1.2032118","-0.5156622"
"0.88","88","-0.069","0.071","-0.082","-0.3437748","0.1145916","0.0"
"0.88","88","-0.013","0.013","-0.026","0.0572958","0.0","0.0"
"0.88","88","0.004","0.003","0.011","-0.2291832","0.0","0.0"
"0.88","88","0.001","0.001","0.001","0.0572958","-0.0572958","0.0"
"0.89","89","0.302","-0.103","0.072","0.1718874","-2.578311","0.9167328"
"0.89","89","0.005","-0.123","0.046","0.3437748","0.859437","-0.4010706"
"0.89","89","-0.068","0.07","-0.08","-0.0572958","0.0","0.0"
"0.89","89","-0.013","0.013","-0.027","0.0","0.0","0.0"
"0.89","89","0.006","0.004","0.007","-0.2291832","0.1718874","-0.1718874"
"0.89","89","-0.001","0.001","0.001","0.0","0.2291832","-0.0572958"
"0.9","90","0.3","-0.101","0.076","0.6875496","-2.5210152","0.9740286"
"0.9","90","0.009","-0.122","0.04","0.0","0.5156622","-0.4010706"
"0.9","90","-0.066","0.068","-0.078","0.0","-0.1145916","0.0"
"0.9","90","-0.013","0.012","-0.026","0.0","0.0","0.0"
"0.9","90","0.003","0.005","0.006","-0.2291832","0.4010706","-0.4583664"
"0.9","90","-0.003","0.001","0.001","0.0","0.0","-0.0572958"
"0.91","91","0.298","-0.105","0.081","0.0","-2.4637194","0.859437"
"0.91","91","0.009","-0.115","0.043","-0.1145916","0.7448454","-0.4010706"
"0.91","91","-0.063","0.066","-0.073","0.0","0.0","0.0"
"0.91","91","-0.012","0.014","-0.025","0.0","0.0","0.0"
"0.91","91","-0.003","0.004","0.006","-0.1145916","0.6302538","-0.7448454"
"0.91","91","-0.004","0.001","0.0","0.0572958","-0.1718874","0.0572958"
"0.92","92","0.298","-0.106","0.092","-0.4583664","-1.6042824","0.9167328"
"0.92","92","0.009","-0.118","0.042","-0.286479","0.1718874","-0.286479"
"0.92","92","-0.06","0.065","-0.071","0.0","0.0","0.0"
"0.92","92","-0.012","0.012","-0.024","0.0","0.0","0.0"
"0.92","92","-0.009","0.003","0.01","0.0","0.7448454","-1.0313244"
"0.92","92","-0.006","0.0","-0.001","0.0","0.0572958","0.0"
"0.93","93","0.297","-0.102","0.09","-0.0572958","-0.1718874","0.859437"
"0.93","93","0.006","-0.113","0.038","-0.7448454","-0.0572958","-0.2291832"
"0.93","93","-0.058","0.062","-0.068","-0.0572958","0.0572958","0.0"
"0.93","93","-0.012","0.012","-0.024","0.0","0.0","0.0"
"0.93","93","-0.011","0.002","0.013","0.1718874","0.6875496","-1.2605076"
"0.93","93","-0.007","0.001","0.0","-0.0572958","0.0572958","0.0"
"0.9400000000000001","94","0.303","-0.102","0.077","0.6302538","1.145916","0.9167328"
"0.9400000000000001","94","0.005","-0.109","0.04","-0.3437748","-0.4010706","0.0572958"
"0.9400000000000001","94","-0.054","0.058","-0.065","-0.0572958","0.0572958","0.0"
"0.9400000000000001","94","-0.012","0.012","-0.024","0.0572958","0.0","0.0"
"0.9400000000000001","94","-0.008","0.002","0.013","0.1718874","0.5156622","-1.3750992"
"0.9400000000000001","94","-0.006","0.001","0.0","0.0","0.0","0.0572958"
"0.9500000000000001","95","0.309","-0.102","0.058","0.4583664","1.7761698","0.6875496"
"0.9500000000000001","95","0.005","-0.109","0.035","0.1718874","-0.6875496","0.3437748"
"0.9500000000000001","95","-0.052","0.057","-0.063","0.0","0.0","0.0"
"0.9500000000000001","95","-0.011","0.012","-0.024","0.0572958","0.0","0.0"
"0.9500000000000001","95","-0.004","0.001","0.012","0.1145916","0.286479","-1.3750992"
"0.9500000000000001","95","-0.006","0.001","0.0","0.0572958","0.0","0.0"
"0.96","96","0.312","-0.103","0.041","-0.2291832","1.145916","0.859437"
"0.96","96","0.004","-0.112","0.025","0.9167328","-1.0313244","0.6302538"
"0.96","96","-0.051","0.056","-0.062","-0.1718874","0.1718874","0.0"
"0.96","96","-0.012","0.012","-0.024","0.0","0.0","0.0"
"0.96","96","0.0","0.004","0.012","0.1145916","0.1145916","-1.3178034"
"0.96","96","-0.004","0.001","0.001","0.0","0.0","0.0"
"0.97","97","0.312","-0.101","0.039","-1.432395","-0.286479","1.145916"
"0.97","97","0.005","-0.118","0.017","1.4896908","-0.6875496","0.859437"
"0.97","97","-0.051","0.054","-0.06","-0.1145916","0.1718874","-0.1145916"
"0.97","97","-0.012","0.012","-0.023","0.0","0.0","0.0"
"0.97","97","0.002","0.007","0.008","0.0572958","0.0","-1.2605076"
"0.97","97","-0.002","0.001","0.002","0.0","0.0572958","0.0"
"0.98","98","0.311","-0.097","0.047","-1.145916","-1.4896908","1.432395"
"0.98","98","0.006","-0.128","0.006","1.8334656","-0.3437748","0.9740286"
"0.98","98","-0.049","0.054","-0.059","-0.1145916","0.0572958","-0.0572958"
"0.98","98","-0.011","0.011","-0.023","0.0","0.0","0.0"
"0.98","98","0.003","0.007","0.007","0.0","0.0572958","-1.145916"
"0.98","98","-0.001","0.001","0.0","0.0","0.0","0.0572958"
"0.99","99","0.307","-0.096","0.053","-0.6302538","-1.718874","1.5469865999999999"
"0.99","99","0.009","-0.141","-0.006","1.3178034","0.2291832","0.4010706"
"0.99","99","-0.049","0.052","-0.057","0.0","0.0","-0.1718874"
"0.99","99","-0.011","0.012","-0.023","0.0","0.0","0.0"
"0.99","99","0.001","0.008","0.007","0.0","0.1718874","-1.0313244"
"0.99","99","0.0","0.0","0.0","0.0","0.1718874","0.0572958"
"1.0","100","0.306","-0.091","0.059","0.1718874","-1.6042824","1.6615782000000001"
"1.0","100","0.009","-0.14","-0.014","0.4010706","1.0313244","-0.1718874"
"1.0","100","-0.047","0.052","-0.057","0.1718874","0.0","-0.1718874"
"1.0","100","-0.012","0.012","-0.022","-0.0572958","0.0","0.0"
"1.0","100","-0.001","0.008","0.008","0.0572958","0.3437748","-0.9167328"
"1.0","100","0.002","0.0","0.0","0.0572958","-0.1145916","0.0572958"
"1.01","101","0.306","-0.089","0.059","1.0886202","-1.145916","1.5469865999999999"
"1.01","101","0.006","-0.131","-0.007","-0.1718874","2.1199445999999997","-0.859437"
"1.01","101","-0.045","0.052","-0.055","0.286479","-0.1145916","-0.3437748"
"1.01","101","-0.012","0.012","-0.021","0.0","0.0","0.0572958"
"1.01","101","-0.005","0.006","0.009","0.1145916","0.4583664","-0.7448454"
"1.01","101","0.002","0.002","0.0","0.0","0.0","0.0"
"1.02","102","0.304","-0.09","0.053","1.7761698","-0.859437","1.6042824"
"1.02","102","0.006","-0.113","0.005","0.859437","3.0366774","-1.0886202"
"1.02","102","-0.045","0.05","-0.055","0.3437748","-0.1145916","-0.6875496"
"1.02","102","-0.011","0.011","-0.023","0.0","0.1145916","0.0"
"1.02","102","-0.008","0.007","0.011","0.1718874","0.5156622","-0.572958"
"1.02","102","0.005","0.0","0.0","0.0","0.2291832","0.0"
"1.03","103","0.309","-0.088","0.044","1.145916","-0.4583664","1.4896908"
"1.03","103","0.002","-0.106","0.002","1.0313244","3.151269","-0.4010706"
"1.03","103","-0.047","0.05","-0.055","0.4583664","-0.4010706","-1.0886202"
"1.03","103","-0.011","0.012","-0.022","0.0","-0.0572958","0.0"
"1.03","103","-0.009","0.003","0.013","0.1145916","0.5156622","-0.4583664"
"1.03","103","0.005","0.0","0.0","0.0","0.0","0.0"
"1.04","104","0.313","-0.085","0.043","0.4583664","-0.1145916","1.0886202"
"1.04","104","0.005","-0.106","0.009","0.0572958","3.3231564000000002","-0.1145916"
"1.04","104","-0.047","0.05","-0.054","0.572958","-0.286479","-1.0313244"
"1.04","104","-0.011","0.012","-0.021","0.0","0.0","-0.0572958"
"1.04","104","-0.01","0.002","0.014","0.0","0.4583664","-0.4010706"
"1.04","104","0.006","0.001","0.001","0.0572958","-0.0572958","0.0"
"1.05","105","0.31","-0.084","0.042","-0.1718874","-0.2291832","0.572958"
"1.05","105","0.003","-0.105","0.02","-0.286479","2.86479","0.286479"
"1.05","105","-0.047","0.05","-0.055","0.5156622","-0.3437748","-0.7448454"
"1.05","105","-0.01","0.012","-0.022","-0.0572958","0.0","0.0"
"1.05","105","-0.01","0.002","0.012","-0.0572958","0.286479","-0.4583664"
"1.05","105","0.005","0.001","0.002","-0.0572958","0.1718874","0.0"
"1.06","106","0.308","-0.083","0.04","-0.3437748","-0.6302538","0.286479"
"1.06","106","0.0","-0.107","0.022","0.3437748","2.578311","0.6302538"
"1.06","106","-0.047","0.049","-0.055","0.6302538","-0.3437748","-0.5156622"
"1.06","106","-0.01","0.012","-0.021","0.0","0.0572958","0.0"
"1.06","106","-0.011","0.002","0.009","-0.286479","0.1718874","-0.572958"
"1.06","106","0.005","0.002","0.0","0.0","-0.0572958","0.0"
"1.07","107","0.312","-0.084","0.039","-0.1145916","-1.145916","0.0"
"1.07","107","0.002","-0.11","0.021","1.6042824","2.9793816","0.6302538"
"1.07","107","-0.045","0.049","-0.054","0.6875496","-0.4583664","-0.3437748"
"1.07","107","-0.01","0.012","-0.021","0.0","0.0","-0.0572958"
"1.07","107","-0.011","0.002","0.009","-0.4583664","0.0","-0.6875496"
"1.07","107","0.005","0.001","0.0","0.1145916","-0.1145916","0.0"
"1.08","108","0.306","-0.087","0.037","-0.1718874","-1.6042824","-0.1718874"
"1.08","108","0.0","-0.113","0.019","3.0939731999999998","3.437748","0.5156622"
"1.08","108","-0.046","0.05","-0.054","0.6875496","-0.4010706","-0.3437748"
"1.08","108","-0.011","0.011","-0.021","0.0","-0.1145916","0.0"
"1.08","108","-0.009","0.002","0.005","-0.572958","-0.1718874","-0.859437"
"1.08","108","0.004","0.001","0.0","0.0","0.0","0.0"
"1.09","109","0.303","-0.087","0.05","0.5156622","-2.291832","-0.0572958"
"1.09","109","0.0","-0.116","0.014","3.4950438","3.8388186","0.6302538"
"1.09","109","-0.043","0.049","-0.053","0.6875496","-0.5156622","-0.3437748"
"1.09","109","-0.01","0.011","-0.02","0.0","0.0572958","0.0"
"1.09","109","-0.008","0.003","0.003","-0.6302538","-0.3437748","-0.9167328"
"1.09","109","0.002","0.001","0.0","0.0","0.0572958","0.0"
"1.1","110","0.3","-0.091","0.051","2.0626488","-2.3491278","-0.0572958"
"1.1","110","0.002","-0.117","0.02","3.5523396","4.1825934","0.4583664"
"1.1","110","-0.045","0.05","-0.052","0.6302538","-0.3437748","-0.572958"
"1.1","110","-0.009","0.011","-0.02","0.0","0.0","0.0"
"1.1","110","-0.008","0.003","0.001","-0.6302538","-0.4583664","-0.9167328"
"1.1","110","0.0","0.001","0.0","0.0572958","0.0","0.0"
"1.11","111","0.302","-0.096","0.048","2.0053530000000004","-2.1199445999999997","-0.1145916"
"1.11","111","0.004","-0.122","0.025","4.1825934","4.583664","0.4010706"
"1.11","111","-0.045","0.05","-0.053","0.286479","-0.2291832","-0.4010706"
"1.11","111","-0.01","0.01","-0.02","0.0","-0.1145916","0.0"
"1.11","111","-0.007","0.002","0.0","-0.572958","-0.5156622","-0.8021412"
"1.11","111","-0.001","0.001","0.0","0.0","0.1718874","0.0"
"1.12","112","0.295","-0.1","0.05","0.4010706","-1.7761698","-0.6302538"
"1.12","112","0.005","-0.122","0.027","5.9014674","5.0420304","-0.1145916"
"1.12","112","-0.045","0.048","-0.052","-0.2291832","0.1718874","-0.286479"
"1.12","112","-0.01","0.011","-0.021","0.0","-0.0572958","0.0"
"1.12","112","-0.009","0.002","0.002","-0.4583664","-0.572958","-0.6875496"
"1.12","112","-0.001","0.0","0.0","0.0","0.0","0.0"
"1.1300000000000001","113","0.294","-0.101","0.06","-0.5156622","-1.6615782000000001","-0.2291832"
"1.1300000000000001","113","0.002","-0.118","0.027","6.4171296","5.9014674","-0.4583664"
"1.1300000000000001","113","-0.044","0.048","-0.052","-0.572958","0.286479","-0.286479"
"1.1300000000000001","113","-0.01","0.011","-0.02","0.0","0.0","0.0"
"1.1300000000000001","113","-0.011","0.001","0.002","-0.3437748","-0.572958","-0.5156622"
"1.1300000000000001","113","-0.003","0.001","0.001","0.1145916","-0.1145916","0.0"
"1.1400000000000001","114","0.294","-0.1","0.059","-0.0572958","-1.432395","-0.3437748"
"1.1400000000000001","114","-0.001","-0.109","0.039","6.1306506","6.1879463999999995","-0.6302538"
"1.1400000000000001","114","-0.043","0.048","-0.052","-0.7448454","0.5156622","-0.1718874"
"1.1400000000000001","114","-0.009","0.01","-0.019","0.0","-0.1145916","-0.0572958"
"1.1400000000000001","114","-0.011","0.002","0.003","-0.286479","-0.6875496","-0.4583664"
"1.1400000000000001","114","-0.003","0.001","0.0","0.0","0.0","0.0"
"1.1500000000000001","115","0.291","-0.103","0.058","-0.286479","-1.5469865999999999","-0.0572958"
"1.1500000000000001","115","-0.004","-0.1","0.046","5.844171599999999","6.016058999999999","-0.6302538"
"1.1500000000000001","115","-0.044","0.046","-0.05","-0.8021412","0.4583664","-0.1718874"
"1.1500000000000001","115","-0.009","0.011","-0.018","0.0","0.0","0.0"
"1.1500000000000001","115","-0.012","0.0","0.003","-0.1718874","-0.8021412","-0.286479"
"1.1500000000000001","115","-0.004","0.001","0.0","0.0","0.1718874","0.0"
"1.16","116","0.288","-0.103","0.057","-0.9740286","-1.7761698","0.0"
"1.16","116","0.0","-0.095","0.059","4.4690724","5.5576926","-0.1145916"
"1.16","116","-0.043","0.046","-0.05","-0.6875496","0.4583664","-0.1145916"
"1.16","116","-0.009","0.011","-0.019","0.0572958","0.0572958","0.0"
"1.16","116","-0.009","0.0","0.002","-0.1145916","-1.0313244","-0.1718874"
"1.16","116","-0.004","0.001","0.0","0.0572958","0.0","-0.0572958"
"1.17","117","0.293","-0.098","0.062","-1.0886202","-1.4896908","0.3437748"
"1.17","117","0.0","-0.092","0.067","2.6356068","4.3544808","-0.0572958"
"1.17","117","-0.041","0.045","-0.05","-0.4583664","0.2291832","-0.2291832"
"1.17","117","-0.01","0.01","-0.018","0.0","0.0","0.0"
"1.17","117","-0.003","0.004","0.002","0.0","-1.2032118","-0.0572958"
"1.17","117","-0.004","0.001","-0.001","0.0572958","0.0572958","0.0"
"1.18","118","0.296","-0.094","0.062","-0.0572958","-1.6042824","0.0572958"
"1.18","118","-0.007","-0.081","0.069","1.0886202","3.0366774","0.2291832"
"1.18","118","-0.041","0.047","-0.05","-0.286479","0.1145916","-0.2291832"
"1.18","118","-0.009","0.011","-0.019","0.0572958","-0.0572958","0.0"
"1.18","118","0.0","0.003","0.003","0.1718874","-1.2605076","0.0"
"1.18","118","-0.003","0.001","-0.001","-0.0572958","0.1145916","0.0"
"1.19","119","0.291","-0.096","0.058","1.2032118","-2.3491278","0.4010706"
"1.19","119","-0.011","-0.071","0.071","0.2291832","2.2345362","0.859437"
"1.19","119","-0.039","0.046","-0.05","-0.286479","0.1718874","-0.4010706"
"1.19","119","-0.009","0.011","-0.018","0.0572958","0.0572958","0.0"
"1.19","119","0.0","0.004","0.007","0.3437748","-1.2605076","0.0572958"
"1.19","119","-0.001","0.0","0.0","0.0","0.0","0.0"
"1.2","120","0.289","-0.103","0.055","0.9740286","-2.5210152","0.572958"
"1.2","120","-0.008","-0.067","0.078","1.0313244","2.4064236","1.718874"
"1.2","120","-0.039","0.045","-0.048","-0.6875496","0.3437748","-0.8021412"
"1.2","120","-0.008","0.011","-0.018","0.0","0.0572958","-0.0572958"
"1.2","120","0.001","0.006","0.009","0.5156622","-1.2032118","0.2291832"
"1.2","120","0.0","0.0","0.0","0.0","-0.1145916","0.0"
"1.21","121","0.287","-0.104","0.062","-0.859437","-2.3491278","0.286479"
"1.21","121","-0.007","-0.072","0.081","2.0053530000000004","2.3491278","2.578311"
"1.21","121","-0.04","0.044","-0.049","-0.6875496","0.4583664","-0.9740286"
"1.21","121","-0.009","0.011","-0.018","0.0","-0.0572958","0.0"
"1.21","121","0.002","0.004","0.009","0.6302538","-1.2032118","0.4010706"
"1.21","121","0.0","0.001","0.001","0.0","0.2291832","0.0"
"1.22","122","0.285","-0.101","0.079","-2.1772404","-1.8334656","0.1718874"
"1.22","122","-0.006","-0.081","0.088","1.9480572","1.5469865999999999","3.437748"
"1.22","122","-0.039","0.044","-0.048","-0.6875496","0.4583664","-1.2032118"
"1.22","122","-0.008","0.011","-0.018","0.0","0.0","0.0"
"1.22","122","0.004","0.004","0.013","0.6875496","-1.145916","0.5156622"
"1.22","122","0.001","0.001","0.001","0.0","0.0572958","0.0572958"
"1.23","123","0.283","-0.096","0.091","-2.1772404","-0.859437","0.4010706"
"1.23","123","-0.005","-0.089","0.096","1.4896908","0.6302538","3.8961144"
"1.23","123","-0.04","0.044","-0.048","-0.572958","0.3437748","-1.3750992"
"1.23","123","-0.009","0.01","-0.018","0.0","0.0","0.0"
"1.23","123","0.005","0.006","0.015","0.8021412","-1.0313244","0.5156622"
"1.23","123","0.002","0.001","0.0","0.0572958","-0.1718874","0.0"
"1.24","124","0.289","-0.088","0.082","-1.8334656","0.6302538","0.2291832"
"1.24","124","-0.004","-0.098","0.095","2.1199445999999997","-0.7448454","4.1825934"
"1.24","124","-0.041","0.043","-0.047","-0.4010706","0.286479","-1.145916"
"1.24","124","-0.009","0.01","-0.017","-0.0572958","0.0572958","0.0"
"1.24","124","0.01","0.007","0.016","0.7448454","-0.9167328","0.4010706"
"1.24","124","0.002","0.001","0.0","0.0572958","0.0572958","0.0"
"1.25","125","0.296","-0.081","0.072","-2.2345362","1.6042824","-0.572958"
"1.25","125","0.0","-0.114","0.076","3.2085648","-1.5469865999999999","4.068001799999999"
"1.25","125","-0.041","0.045","-0.047","-0.286479","0.1718874","-0.859437"
"1.25","125","-0.009","0.011","-0.017","0.0","0.0","-0.0572958"
"1.25","125","0.01","0.008","0.018","0.6302538","-0.6302538","0.1145916"
"1.25","125","0.003","0.001","0.0","0.0","0.0","0.0"
"1.26","126","0.295","-0.083","0.058","-2.4064236","1.6615782000000001","-1.3178034"
"1.26","126","-0.002","-0.116","0.053","2.8074942000000003","-0.9740286","3.724227"
"1.26","126","-0.04","0.045","-0.046","-0.6875496","0.3437748","-0.6302538"
"1.26","126","-0.009","0.01","-0.016","0.0","0.1145916","0.0"
"1.26","126","0.005","0.006","0.02","0.4010706","-0.2291832","-0.286479"
"1.26","126","0.004","0.001","0.0","0.1145916","0.0","0.0"
"1.27","127","0.297","-0.092","0.055","-2.1772404","1.0313244","-1.8334656"
"1.27","127","0.001","-0.112","0.06","1.8334656","0.4010706","3.2658606"
"1.27","127","-0.04","0.044","-0.046","-1.0313244","0.6875496","-0.4010706"
"1.27","127","-0.009","0.01","-0.017","0.0","0.0","0.0"
"1.27","127","-0.001","0.004","0.021","0.0572958","0.0","-0.859437"
"1.27","127","0.004","0.001","0.0","0.1145916","-0.1145916","0.0"
"1.28","128","0.295","-0.104","0.052","-2.5210152","0.7448454","-2.0626488"
"1.28","128","0.004","-0.104","0.084","2.1199445999999997","1.145916","3.2658606"
"1.28","128","-0.039","0.043","-0.047","-1.2605076","0.6302538","-0.1718874"
"1.28","128","-0.008","0.01","-0.017","0.0","-0.1145916","-0.0572958"
"1.28","128","-0.006","0.004","0.017","-0.286479","0.1145916","-1.3750992"
"1.28","128","0.003","0.002","0.0","0.0","0.0572958","0.0"
"1.29","129","0.291","-0.109","0.056","-1.9480572","0.7448454","-1.7761698"
"1.29","129","0.006","-0.101","0.104","3.2085648","0.4010706","3.4950438"
"1.29","129","-0.039","0.042","-0.045","-0.859437","0.572958","0.0"
"1.29","129","-0.008","0.01","-0.017","0.0","-0.0572958","0.0"
"1.29","129","-0.007","0.002","0.014","-0.7448454","0.0572958","-1.8334656"
"1.29","129","0.003","0.001","0.0","0.0","-0.0572958","0.0"
"1.3","130","0.292","-0.112","0.058","-0.859437","0.7448454","-1.2032118"
"1.3","130","0.008","-0.099","0.115","3.9534102000000004","-1.4896908","3.7815228000000003"
"1.3","130","-0.039","0.042","-0.046","-0.286479","0.0572958","0.0"
"1.3","130","-0.008","0.01","-0.016","0.0","0.0","0.0"
"1.3","130","-0.005","0.0","0.009","-1.145916","-0.1145916","-2.1772404"
"1.3","130","0.003","0.001","0.0","0.0572958","0.0","0.0"
"1.31","131","0.289","-0.117","0.05","-0.1145916","0.5156622","-0.1718874"
"1.31","131","0.007","-0.1","0.114","5.2139178","-3.3231564000000002","4.1825934"
"1.31","131","-0.038","0.041","-0.043","-0.1718874","0.0572958","0.1145916"
"1.31","131","-0.008","0.01","-0.016","0.0","0.0572958","0.0"
"1.31","131","-0.001","0.002","0.005","-1.4896908","-0.286479","-2.4064236"
"1.31","131","0.002","0.001","0.0","0.0","0.0","0.0"
"1.32","132","0.289","-0.111","0.053","0.1718874","0.3437748","0.3437748"
"1.32","132","0.006","-0.106","0.089","5.3285094","-4.7555514","4.3544808"
"1.32","132","-0.036","0.04","-0.043","-0.1145916","0.0","0.1718874"
"1.32","132","-0.008","0.009","-0.016","0.0572958","0.1145916","0.0"
"1.32","132","0.0","0.002","0.001","-1.7761698","-0.5156622","-2.578311"
"1.32","132","0.0","0.002","0.0","0.0","-0.1145916","0.0"
"1.33","133","0.29","-0.111","0.047","1.0886202","0.4010706","0.6875496"
"1.33","133","0.006","-0.109","0.068","3.4950438","-5.786875800000001","4.5263682"
"1.33","133","-0.036","0.041","-0.044","-0.4583664","0.286479","0.1718874"
"1.33","133","-0.008","0.01","-0.016","0.0","0.0","0.0"
"1.33","133","-0.001","0.002","-0.001","-1.8907614000000001","-0.6302538","-2.6929026"
"1.33","133","-0.001","0.0","-0.001","0.0","-0.1145916","0.0"
"1.34","134","0.292","-0.111","0.035","1.9480572","0.4583664","0.7448454"
"1.34","134","0.007","-0.11","0.059","2.4637194","-6.1306506","4.6409598"
"1.34","134","-0.036","0.04","-0.042","-0.4010706","0.1718874","0.286479"
"1.34","134","-0.008","0.01","-0.015","0.0","-0.0572958","0.0"
"1.34","134","-0.002","0.003","-0.003","-1.8907614000000001","-0.6875496","-2.6929026"
"1.34","134","-0.001","0.0","0.0","0.0","0.1145916","0.0"
"1.35","135","0.294","-0.119","0.031","1.0313244","0.0","1.0313244"
"1.35","135","0.003","-0.109","0.045","2.6356068","-6.1879463999999995","4.7555514"
"1.35","135","-0.035","0.04","-0.042","-0.3437748","0.0572958","0.2291832"
"1.35","135","-0.008","0.01","-0.014","0.0","0.0","0.0"
"1.35","135","-0.004","0.003","-0.007","-1.7761698","-0.7448454","-2.6929026"
"1.35","135","-0.001","0.001","0.0","0.0","0.1145916","-0.0572958"
"1.36","136","0.29","-0.118","0.035","1.0313244","-0.286479","1.5469865999999999"
"1.36","136","0.004","-0.114","0.041","2.1199445999999997","-5.5003968","5.0420304"
"1.36","136","-0.035","0.039","-0.04","-0.1718874","0.1145916","0.2291832"
"1.36","136","-0.008","0.009","-0.015","0.0","0.0572958","0.0"
"1.36","136","-0.004","0.002","-0.009","-1.4896908","-0.859437","-2.6929026"
"1.36","136","-0.003","0.0","0.0","0.1145916","-0.0572958","0.0572958"
"1.37","137","0.287","-0.117","0.033","1.7761698","-0.859437","2.6356068"
"1.37","137","0.007","-0.117","0.047","2.578311","-5.2139178","5.3858052"
"1.37","137","-0.035","0.038","-0.04","0.0572958","-0.1145916","0.2291832"
"1.37","137","-0.008","0.009","-0.014","0.0","0.0","0.0"
"1.37","137","-0.001","0.002","-0.008","-1.0313244","-1.0313244","-2.5210152"
"1.37","137","-0.002","0.001","0.0","0.0","0.0572958","0.0"
"1.3800000000000001","138","0.289","-0.113","0.029","2.3491278","-1.4896908","3.3804521999999997"
"1.3800000000000001","138","0.01","-0.128","0.047","2.7501984","-5.3858052","5.2139178"
"1.3800000000000001","138","-0.033","0.037","-0.04","0.286479","-0.2291832","0.2291832"
"1.3800000000000001","138","-0.008","0.009","-0.015","0.0","0.0","0.0"
"1.3800000000000001","138","0.0","0.002","-0.005","-0.5156622","-1.145916","-2.291832"
"1.3800000000000001","138","-0.002","0.0","0.0","0.0","-0.0572958","0.0"
"1.3900000000000001","139","0.29","-0.111","0.026","1.6042824","-1.9480572","3.8961144"
"1.3900000000000001","139","0.011","-0.131","0.042","2.6356068","-5.72958","4.4690724"
"1.3900000000000001","139","-0.033","0.037","-0.04","0.3437748","-0.286479","0.2291832"
"1.3900000000000001","139","-0.007","0.009","-0.014","-0.0572958","0.0","0.0"
"1.3900000000000001","139","0.001","0.001","-0.001","0.0","-1.2032118","-2.0626488"
"1.3900000000000001","139","-0.002","0.001","0.0","0.0572958","-0.1718874","0.0"
"1.4000000000000001","140","0.296","-0.101","0.029","0.2291832","-2.0626488","4.297185"
"1.4000000000000001","140","0.011","-0.136","0.034","1.8334656","-5.6149884000000005","4.297185"
"1.4000000000000001","140","-0.032","0.037","-0.039","0.3437748","-0.1145916","0.2291832"
"1.4000000000000001","140","-0.007","0.01","-0.015","-0.0572958","0.0","0.0"
"1.4000000000000001","140","0.001","0.001","0.002","0.3437748","-1.2032118","-1.718874"
"1.4000000000000001","140","-0.001","0.001","0.0","0.0","0.1718874","0.0"
"1.41","141","0.293","-0.094","0.036","-0.1718874","-2.4064236","3.9534102000000004"
"1.41","141","0.007","-0.133","0.028","-0.9167328","-4.9274388","3.151269"
"1.41","141","-0.031","0.037","-0.039","0.3437748","-0.3437748","0.2291832"
"1.41","141","-0.006","0.009","-0.014","0.0","0.0","0.0572958"
"1.41","141","0.001","0.0","0.005","0.6302538","-1.145916","-1.3750992"
"1.41","141","-0.002","0.001","0.0","0.0","0.0572958","0.0"
"1.42","142","0.295","-0.087","0.037","-0.1145916","-2.3491278","4.1252976"
"1.42","142","-0.001","-0.112","0.04","-4.8701430000000006","-4.3544808","2.5210152"
"1.42","142","-0.031","0.036","-0.037","0.1145916","-0.1145916","0.1718874"
"1.42","142","-0.007","0.01","-0.014","-0.0572958","0.0","0.0"
"1.42","142","0.0","0.0","0.007","0.8021412","-1.0886202","-0.9740286"
"1.42","142","0.0","0.001","-0.001","0.0","-0.1145916","-0.1145916"
"1.43","143","0.297","-0.08","0.045","0.6302538","-3.2085648","4.2398891999999995"
"1.43","143","-0.008","-0.073","0.087","-6.4171296","-3.9534102000000004","2.5210152"
"1.43","143","-0.032","0.035","-0.037","0.1145916","-0.1145916","0.1718874"
"1.43","143","-0.006","0.009","-0.013","0.0","0.0","0.0"
"1.43","143","0.0","0.004","0.006","0.859437","-1.0886202","-0.5156622"
"1.43","143","0.0","0.001","0.0","0.0","0.0572958","0.0"
"1.44","144","0.295","-0.077","0.053","1.718874","-3.7815228000000003","4.3544808"
"1.44","144","-0.007","-0.027","0.134","-2.3491278","-4.7555514","4.6409598"
"1.44","144","-0.031","0.035","-0.036","0.1718874","-0.1718874","0.2291832"
"1.44","144","-0.007","0.009","-0.013","0.0","0.0572958","0.0"
"1.44","144","0.0","0.002","0.005","0.8021412","-1.0886202","0.0"
"1.44","144","0.001","0.001","0.0","0.0","0.0572958","0.0"
"1.45","145","0.291","-0.07","0.059","2.0626488","-3.9534102000000004","4.2398891999999995"
"1.45","145","-0.011","-0.02","0.131","0.859437","-7.2765666","7.0473834"
"1.45","145","-0.031","0.033","-0.036","0.2291832","-0.2291832","0.286479"
"1.45","145","-0.007","0.008","-0.013","0.0","0.0","0.0"
"1.45","145","0.001","0.003","0.006","0.7448454","-1.145916","0.572958"
"1.45","145","0.001","0.001","0.0","0.0","-0.1145916","0.0"
"1.46","146","0.288","-0.065","0.061","1.8907614000000001","-3.2658606","3.6096354"
"1.46","146","-0.01","-0.022","0.121","0.8021412","-9.3965112","9.6256944"
"1.46","146","-0.031","0.033","-0.035","0.3437748","-0.286479","0.3437748"
"1.46","146","-0.008","0.009","-0.014","0.0","0.0","-0.0572958"
"1.46","146","0.003","0.002","0.007","0.7448454","-1.2032118","1.0886202"
"1.46","146","0.003","0.002","0.0","0.0","0.0572958","0.0"
"1.47","147","0.292","-0.057","0.066","1.0313244","-2.4637194","2.86479"
"1.47","147","-0.005","-0.043","0.096","-2.578311","-12.318597","11.516455800000001"
"1.47","147","-0.029","0.034","-0.036","0.572958","-0.4010706","0.3437748"
"1.47","147","-0.007","0.009","-0.014","0.0572958","-0.0572958","0.0572958"
"1.47","147","0.006","0.003","0.008","0.7448454","-1.145916","1.3750992"
"1.47","147","0.003","0.001","0.0","-0.0572958","0.0572958","0.0572958"
"1.48","148","0.27","-0.049","0.062","1.718874","-2.3491278","0.6302538"
"1.48","148","-0.034","0.035","0.116","-6.2452422","-11.9748222","13.9228794"
"1.48","148","-0.029","0.034","-0.035","0.5156622","-0.4010706","0.3437748"
"1.48","148","-0.007","0.008","-0.014","0.0","0.0","0.0572958"
"1.48","148","0.002","0.005","0.007","0.7448454","-0.9740286","1.4896908"
"1.48","148","0.003","0.001","0.0","0.0","0.0","0.0"
"1.49","149","0.31","-0.054","0.057","-0.4010706","-0.6302538","0.4010706"
"1.49","149","-0.019","-0.012","0.128","-7.563045600000001","-15.0114996","18.6784308"
"1.49","149","-0.03","0.033","-0.036","0.2291832","-0.2291832","0.286479"
"1.49","149","-0.006","0.009","-0.013","0.0","-0.1145916","0.0"
"1.49","149","-0.002","0.003","0.009","0.7448454","-0.8021412","1.4896908"
"1.49","149","0.003","0.001","-0.001","0.0","0.0","0.0"
"1.5","150","0.295","-0.062","0.071","-0.572958","-0.6875496","0.0572958"
"1.5","150","-0.021","-0.039","0.126","-4.4117766","-16.4438946","20.6837838"
"1.5","150","-0.028","0.032","-0.032","0.0","-0.0572958","0.2291832"
"1.5","150","-0.007","0.008","-0.013","0.0","-0.1145916","0.0"
"1.5","150","-0.004","0.005","0.01","0.7448454","-0.7448454","1.432395"
"1.5","150","0.003","0.001","-0.001","-0.0572958","0.1145916","0.0"
"1.51","151","0.282","-0.061","0.068","-0.9740286","-1.718874","0.0572958"
"1.51","151","-0.016","-0.074","0.105","-1.0886202","-16.5011904","21.5432208"
"1.51","151","-0.028","0.031","-0.033","0.0","0.0","0.1718874"
"1.51","151","-0.007","0.009","-0.012","-0.0572958","0.0","0.0"
"1.51","151","-0.005","0.005","0.01","0.7448454","-0.859437","1.3178034"
"1.51","151","0.003","0.002","-0.001","0.0","0.0","0.0"
"1.52","152","0.285","-0.072","0.07","-0.3437748","-1.3750992","0.1718874"
"1.52","152","-0.015","-0.11","0.09","1.2032118","-15.5844576","21.5432208"
"1.52","152","-0.027","0.03","-0.033","0.0","0.0","0.1145916"
"1.52","152","-0.007","0.009","-0.013","0.0","0.0","0.0"
"1.52","152","-0.004","0.004","0.011","0.6875496","-0.9740286","1.2032118"
"1.52","152","0.001","0.001","0.0","0.0572958","0.0","0.0"
"1.53","153","0.284","-0.075","0.071","0.286479","-1.5469865999999999","0.7448454"
"1.53","153","-0.007","-0.137","0.086","3.5523396","-15.126091200000001","20.9702628"
"1.53","153","-0.027","0.03","-0.031","0.0","0.0","0.1718874"
"1.53","153","-0.006","0.008","-0.012","0.0","-0.1145916","0.0"
"1.53","153","-0.002","0.005","0.01","0.5156622","-1.145916","1.0313244"
"1.53","153","0.001","0.001","0.0","0.0","0.0572958","0.0"
"1.54","154","0.28","-0.076","0.066","1.0313244","-0.9740286","0.9740286"
"1.54","154","-0.009","-0.153","0.072","4.9847345999999995","-14.7250206","19.767051"
"1.54","154","-0.026","0.029","-0.031","0.0","-0.0572958","0.1145916"
"1.54","154","-0.007","0.009","-0.012","0.0","0.1718874","0.0"
"1.54","154","0.001","0.004","0.007","0.286479","-1.3750992","0.8021412"
"1.54","154","0.0","0.0","0.0","0.0","0.0572958","0.0"
"1.55","155","0.285","-0.072","0.064","1.0313244","-0.2291832","1.0313244"
"1.55","155","-0.002","-0.161","0.072","5.5576926","-13.865583599999999","18.1054728"
"1.55","155","-0.025","0.029","-0.03","-0.1718874","0.0572958","0.1145916"
"1.55","155","-0.006","0.008","-0.012","0.0","0.0","0.0"
"1.55","155","0.004","0.004","0.005","0.0572958","-1.5469865999999999","0.5156622"
"1.55","155","0.0","0.0","0.0","0.1145916","0.0","-0.0572958"
"1.56","156","0.284","-0.063","0.059","1.2032118","0.1145916","0.8021412"
"1.56","156","0.0","-0.164","0.085","5.2712136","-14.32395","16.7876694"
"1.56","156","-0.025","0.029","-0.03","-0.1718874","0.1145916","0.0"
"1.56","156","-0.006","0.008","-0.012","0.0","0.0","0.0"
"1.56","156","0.004","0.003","0.003","-0.1145916","-1.5469865999999999","0.0"
"1.56","156","0.0","0.001","0.0","0.0572958","0.0","0.0"
"1.57","157","0.288","-0.057","0.053","1.8334656","0.1145916","0.4583664"
"1.57","157","0.005","-0.174","0.092","4.9847345999999995","-15.5844576","16.2147114"
"1.57","157","-0.024","0.026","-0.028","-0.1145916","0.0572958","0.0"
"1.57","157","-0.006","0.008","-0.011","0.0","0.0","0.0572958"
"1.57","157","0.003","0.003","0.0","-0.286479","-1.4896908","-0.4583664"
"1.57","157","-0.001","0.0","-0.001","0.0","0.0","0.0"
"1.58","158","0.29","-0.055","0.04","1.8907614000000001","0.3437748","-0.286479"
"1.58","158","0.003","-0.186","0.098","4.2398891999999995","-16.8449652","14.037471"
"1.58","158","-0.023","0.027","-0.028","-0.0572958","0.1145916","0.0"
"1.58","158","-0.006","0.008","-0.012","0.0","-0.0572958","0.0"
"1.58","158","0.0","0.003","0.0","-0.3437748","-1.3750992","-1.0313244"
"1.58","158","-0.002","0.001","0.0","0.0","-0.1145916","0.0"
"1.59","159","0.289","-0.059","0.033","0.5156622","0.0","-1.432395"
"1.59","159","0.0","-0.171","0.113","3.7815228000000003","-17.3606274","11.8029348"
"1.59","159","-0.023","0.026","-0.027","-0.286479","0.1145916","0.0"
"1.59","159","-0.006","0.009","-0.012","0.0","-0.0572958","0.0572958"
"1.59","159","-0.001","0.002","0.001","-0.3437748","-1.2605076","-1.432395"
"1.59","159","-0.002","0.001","0.0","0.0","0.0572958","0.0"
"1.6","160","0.286","-0.068","0.034","-0.1145916","0.0572958","-2.2345362"
"1.6","160","-0.002","-0.151","0.111","5.2712136","-17.7044022","9.740286000000001"
"1.6","160","-0.023","0.025","-0.027","-0.2291832","0.1145916","-0.1145916"
"1.6","160","-0.007","0.008","-0.011","0.0","0.0","0.0"
"1.6","160","0.0","0.002","0.0","-0.3437748","-1.2605076","-1.6615782000000001"
"1.6","160","-0.002","0.001","0.0","-0.0572958","0.1145916","-0.0572958"
"1.61","161","0.284","-0.072","0.041","0.286479","-0.2291832","-2.0626488"
"1.61","161","-0.008","-0.119","0.11","7.5057498","-17.6471064","8.880849"
"1.61","161","-0.022","0.025","-0.026","-0.286479","0.0572958","-0.0572958"
"1.61","161","-0.006","0.008","-0.012","0.0","-0.1145916","-0.0572958"
"1.61","161","0.0","0.003","0.001","-0.2291832","-1.2605076","-1.7761698"
"1.61","161","-0.001","0.001","0.0","0.0","0.0572958","0.0"
"1.62","162","0.288","-0.074","0.038","1.9480572","-0.0572958","-1.6042824"
"1.62","162","-0.006","-0.109","0.107","10.1413566","-17.6471064","9.167328"
"1.62","162","-0.022","0.024","-0.026","-0.286479","0.1145916","-0.1145916"
"1.62","162","-0.006","0.008","-0.011","0.0","0.0","0.0"
"1.62","162","0.0","0.002","0.002","-0.1145916","-1.2032118","-1.8907614000000001"
"1.62","162","-0.001","0.001","0.0","0.0","0.0572958","0.0"
"1.6300000000000001","163","0.292","-0.075","0.027","3.5523396","-0.0572958","-1.5469865999999999"
"1.6300000000000001","163","0.001","-0.116","0.09","11.8602306","-17.18874","9.3392154"
"1.6300000000000001","163","-0.021","0.024","-0.025","-0.0572958","0.1145916","0.0"
"1.6300000000000001","163","-0.005","0.007","-0.01","0.0","0.1145916","0.0"
"1.6300000000000001","163","-0.003","0.001","0.003","0.0","-1.0886202","-1.9480572"
"1.6300000000000001","163","0.0","0.001","0.0","0.0","0.1145916","0.0"
"1.6400000000000001","164","0.292","-0.074","0.013","3.8961144","0.1145916","-1.8907614000000001"
"1.6400000000000001","164","0.0","-0.119","0.092","11.3445684","-16.4438946","8.9954406"
"1.6400000000000001","164","-0.02","0.023","-0.024","-0.0572958","0.0572958","0.0"
"1.6400000000000001","164","-0.005","0.008","-0.01","0.0572958","0.0","0.0"
"1.6400000000000001","164","-0.005","0.002","0.004","0.0","-0.9740286","-2.0053530000000004"
"1.6400000000000001","164","0.0","0.001","0.0","0.0572958","-0.1145916","0.0"
"1.6500000000000001","165","0.293","-0.075","0.006","3.437748","-0.572958","-2.5210152"
"1.6500000000000001","165","-0.009","-0.114","0.116","10.1986524","-16.272007199999997","8.7662574"
"1.6500000000000001","165","-0.02","0.023","-0.024","-0.3437748","0.1718874","0.0"
"1.6500000000000001","165","-0.005","0.008","-0.012","0.0","0.0","0.0"
"1.6500000000000001","165","-0.01","0.0","0.004","0.1145916","-0.9167328","-2.0053530000000004"
"1.6500000000000001","165","0.0","0.001","0.0","0.0","0.0","-0.0572958"
"1.6600000000000001","166","0.288","-0.084","0.004","3.2085648","-1.6615782000000001","-3.0939731999999998"
"1.6600000000000001","166","-0.003","-0.102","0.136","9.6829902","-17.6471064","9.3965112"
"1.6600000000000001","166","-0.019","0.023","-0.024","-0.5156622","0.4583664","0.0"
"1.6600000000000001","166","-0.005","0.008","-0.011","0.0","0.1145916","0.0"
"1.6600000000000001","166","-0.012","0.0","0.004","0.2291832","-0.9740286","-1.8907614000000001"
"1.6600000000000001","166","0.0","0.001","0.0","0.0","0.1145916","0.0"
"1.67","167","0.286","-0.095","0.01","2.1772404","-2.291832","-2.86479"
"1.67","167","-0.005","-0.102","0.144","10.3705398","-18.5065434","9.167328"
"1.67","167","-0.02","0.023","-0.023","-0.9167328","0.6875496","-0.0572958"
"1.67","167","-0.005","0.008","-0.011","0.0","0.0","-0.0572958"
"1.67","167","-0.012","0.001","0.009","0.4010706","-1.2032118","-1.6615782000000001"
"1.67","167","0.002","0.001","0.0","0.0","-0.0572958","0.0572958"
"1.68","168","0.284","-0.106","0.02","1.0313244","-2.7501984","-2.578311"
"1.68","168","-0.008","-0.098","0.138","10.255948199999999","-18.907614000000002","8.59437"
"1.68","168","-0.02","0.022","-0.024","-1.0313244","0.6875496","0.0"
"1.68","168","-0.005","0.008","-0.009","0.0","0.0","0.0"
"1.68","168","-0.008","0.003","0.007","0.4583664","-1.432395","-1.432395"
"1.68","168","0.001","0.001","0.0","0.0","0.0","-0.1145916"
"1.69","169","0.282","-0.112","0.027","0.3437748","-2.5210152","-1.9480572"
"1.69","169","-0.017","-0.081","0.15","8.021412000000002","-19.767051","8.3651868"
"1.69","169","-0.02","0.022","-0.023","-1.0313244","0.5156622","0.0"
"1.69","169","-0.005","0.007","-0.01","0.0","-0.0572958","0.0"
"1.69","169","-0.004","0.005","0.006","0.572958","-1.718874","-1.145916"
"1.69","169","0.001","0.001","0.0","0.0","0.0572958","0.0"
"1.7","170","0.285","-0.108","0.03","0.572958","-2.2345362","-1.145916"
"1.7","170","-0.019","-0.075","0.159","6.4744254","-21.0275586","8.8235532"
"1.7","170","-0.02","0.021","-0.023","-1.0886202","0.6875496","0.0"
"1.7","170","-0.006","0.008","-0.009","0.0","0.0572958","0.0"
"1.7","170","-0.002","0.007","0.004","0.6302538","-1.9480572","-0.9167328"
"1.7","170","0.002","0.0","0.0","0.0","0.0","0.0"
"1.71","171","0.287","-0.102","0.026","1.0313244","-2.3491278","-0.7448454"
"1.71","171","-0.022","-0.078","0.175","5.844171599999999","-21.7151082","8.9954406"
"1.71","171","-0.02","0.021","-0.023","-0.9740286","0.572958","0.1145916"
"1.71","171","-0.005","0.008","-0.009","0.0","0.0","0.0"
"1.71","171","0.0","0.007","0.006","0.8021412","-2.2345362","-0.6875496"
"1.71","171","0.002","0.001","0.0","0.0","-0.1145916","0.0"
"1.72","172","0.292","-0.094","0.027","2.1772404","-2.86479","0.0"
"1.72","172","-0.022","-0.08","0.195","6.6463128000000005","-22.5172494","8.9954406"
"1.72","172","-0.02","0.022","-0.022","-0.6302538","0.4583664","0.0572958"
"1.72","172","-0.006","0.008","-0.01","0.0","0.0572958","0.0"
"1.72","172","0.002","0.007","0.007","0.9740286","-2.4064236","-0.572958"
"1.72","172","0.002","0.0","0.0","0.0","0.0","0.0"
"1.73","173","0.29","-0.09","0.027","3.0939731999999998","-4.1252976","0.286479"
"1.73","173","-0.03","-0.083","0.221","9.0527364","-23.777756999999998","9.0527364"
"1.73","173","-0.018","0.022","-0.022","-0.4583664","0.3437748","0.0"
"1.73","173","-0.005","0.008","-0.01","0.0","0.0572958","0.0"
"1.73","173","0.004","0.006","0.009","1.0886202","-2.578311","-0.4583664"
"1.73","173","0.002","0.001","-0.001","-0.1145916","0.1718874","0.0"
"1.74","174","0.285","-0.094","0.025","3.3231564000000002","-5.2712136","0.572958"
"1.74","174","-0.018","-0.093","0.229","13.178034","-25.210152","8.59437"
"1.74","174","-0.019","0.02","-0.022","-0.4010706","0.286479","0.0"
"1.74","174","-0.005","0.007","-0.01","0.0","-0.0572958","0.0"
"1.74","174","0.007","0.005","0.012","1.145916","-2.6356068","-0.4010706"
"1.74","174","0.001","0.0","0.0","0.0","0.0","0.0"
"1.75","175","0.283","-0.097","0.026","1.145916","-5.72958","0.3437748"
"1.75","175","-0.023","-0.094","0.202","13.464512999999998","-28.361421","8.021412000000002"
"1.75","175","-0.018","0.02","-0.022","-0.286479","0.1145916","-0.0572958"
"1.75","175","-0.005","0.008","-0.01","0.0","-0.1145916","0.0"
"1.75","175","0.011","0.005","0.013","1.2605076","-2.6929026","-0.3437748"
"1.75","175","0.001","0.0","0.0","-0.0572958","0.0","0.0"
"1.76","176","0.281","-0.089","0.052","-1.2032118","-5.844171599999999","0.0"
"1.76","176","-0.028","-0.092","0.181","10.4851314","-30.7678446","8.479778399999999"
"1.76","176","-0.018","0.02","-0.022","-0.1145916","0.0572958","-0.0572958"
"1.76","176","-0.005","0.008","-0.01","0.0","-0.0572958","0.0"
"1.76","176","0.015","0.005","0.016","1.3178034","-2.6356068","-0.2291832"
"1.76","176","0.001","0.001","0.0","0.0","0.0","0.0"
"1.77","177","0.271","-0.082","0.08","-1.2032118","-5.2712136","-0.1718874"
"1.77","177","-0.025","-0.087","0.154","6.589017","-32.6013102","7.8495246000000005"
"1.77","177","-0.017","0.02","-0.022","-0.0572958","0.0572958","0.0"
"1.77","177","-0.005","0.008","-0.009","0.0","0.0","0.0"
"1.77","177","0.013","0.005","0.021","1.2605076","-2.3491278","-0.286479"
"1.77","177","0.0","0.0","0.0","0.0","-0.0572958","0.0"
"1.78","178","0.261","-0.077","0.084","1.4896908","-3.437748","0.1718874"
"1.78","178","-0.038","-0.062","0.135","-0.3437748","-33.7472262","8.3651868"
"1.78","178","-0.017","0.019","-0.02","-0.1718874","0.1145916","-0.0572958"
"1.78","178","-0.005","0.008","-0.009","0.0","0.0572958","0.0"
"1.78","178","0.009","0.008","0.022","1.0313244","-2.1199445999999997","-0.5156622"
"1.78","178","-0.001","0.001","0.0","0.0","0.0572958","0.0"
"1.79","179","0.271","-0.074","0.073","2.1199445999999997","-1.7761698","-0.2291832"
"1.79","179","-0.034","-0.06","0.151","-5.6149884000000005","-34.1482968","9.5683986"
"1.79","179","-0.016","0.02","-0.02","-0.4010706","0.2291832","0.0"
"1.79","179","-0.004","0.008","-0.009","0.0","0.0572958","0.0"
"1.79","179","0.002","0.004","0.018","0.6875496","-1.8907614000000001","-0.9167328"
"1.79","179","-0.001","0.001","0.0","-0.0572958","0.0572958","0.0"
"1.8","180","0.276","-0.077","0.052","1.145916","-0.2291832","-1.2032118"
"1.8","180","-0.039","-0.056","0.184","-8.880849","-35.4661002","10.026765"
"1.8","180","-0.017","0.019","-0.021","-0.5156622","0.3437748","0.0"
"1.8","180","-0.004","0.008","-0.01","0.0","0.0","0.0"
"1.8","180","-0.002","0.002","0.018","0.286479","-1.718874","-1.4896908"
"1.8","180","0.0","0.001","0.0","-0.1145916","-0.0572958","0.0"
"1.81","181","0.275","-0.079","0.037","-0.2291832","0.0","-1.8907614000000001"
"1.81","181","-0.057","-0.03","0.218","-7.6203414","-37.7006364","11.1153852"
"1.81","181","-0.016","0.019","-0.019","-0.6875496","0.3437748","0.0"
"1.81","181","-0.006","0.007","-0.009","0.0572958","0.0572958","0.0"
"1.81","181","-0.003","0.001","0.013","-0.0572958","-1.718874","-2.0626488"
"1.81","181","0.0","0.001","0.0","0.0","0.0","0.0"
"1.82","182","0.276","-0.084","0.025","-0.9740286","-0.4010706","-2.291832"
"1.82","182","-0.055","-0.021","0.214","-1.3750992","-40.3362432","13.1207382"
"1.82","182","-0.016","0.017","-0.02","-0.6302538","0.4010706","0.1718874"
"1.82","182","-0.005","0.008","-0.009","0.0","0.0572958","0.0"
"1.82","182","0.003","0.001","0.006","-0.286479","-1.7761698","-2.578311"
"1.82","182","-0.001","0.001","0.0","-0.0572958","0.0572958","0.0572958"
"1.83","183","0.276","-0.087","0.018","-1.7761698","-1.432395","-2.2345362"
"1.83","183","-0.054","-0.03","0.173","6.0733548","-42.685370999999996","15.9282324"
"1.83","183","-0.017","0.018","-0.02","-0.5156622","0.286479","0.286479"
"1.83","183","-0.004","0.007","-0.009","0.0","0.0","0.0"
"1.83","183","0.008","0.0","0.003","-0.4010706","-1.8334656","-3.0366774"
"1.83","183","0.0","0.001","0.0","0.0","-0.0572958","0.0572958"
"1.84","184","0.279","-0.088","0.03","-2.2345362","-2.9220857999999996","-1.9480572"
"1.84","184","-0.052","-0.042","0.135","12.089413799999999","-43.3729206","17.475219"
"1.84","184","-0.015","0.018","-0.019","-0.5156622","0.2291832","0.2291832"
"1.84","184","-0.004","0.007","-0.009","0.0572958","0.0","0.0"
"1.84","184","0.008","0.001","0.005","-0.3437748","-1.718874","-3.4950438"
"1.84","184","-0.001","0.001","0.0","0.1718874","0.0572958","0.0"
"1.85","185","0.275","-0.084","0.048","-1.0313244","-3.6096354","-1.432395"
"1.85","185","-0.052","-0.059","0.097","15.412570200000001","-42.97185","18.621135"
"1.85","185","-0.015","0.018","-0.019","-0.5156622","0.1718874","0.286479"
"1.85","185","-0.004","0.007","-0.009","0.0572958","0.1718874","0.0"
"1.85","185","0.002","0.0","0.005","-0.286479","-1.432395","-4.010706000000001"
"1.85","185","-0.001","0.001","0.0","0.0","0.0572958","0.0"
"1.86","186","0.275","-0.079","0.052","1.145916","-3.2085648","-0.8021412"
"1.86","186","-0.053","-0.063","0.1","18.621135","-40.393539","19.3086846"
"1.86","186","-0.017","0.017","-0.02","-0.6302538","0.286479","0.5156622"
"1.86","186","-0.005","0.007","-0.008","0.0572958","0.2291832","0.0"
"1.86","186","-0.006","0.001","0.005","-0.286479","-1.145916","-4.6982556"
"1.86","186","0.0","0.001","0.0","0.0","0.1145916","0.0"
"1.87","187","0.279","-0.076","0.04","2.4064236","-2.3491278","-0.8021412"
"1.87","187","-0.052","-0.061","0.134","23.5485738","-39.4768062","19.938938399999998"
"1.87","187","-0.015","0.017","-0.017","-0.4010706","0.286479","0.572958"
"1.87","187","-0.004","0.007","-0.009","0.0","0.0","-0.0572958"
"1.87","187","-0.013","0.0","0.003","-0.3437748","-0.9740286","-5.3285094"
"1.87","187","0.0","0.002","0.0","0.0","-0.1145916","0.0"
"1.8800000000000001","188","0.28","-0.073","0.027","2.1199445999999997","-1.6042824","-1.2032118"
"1.8800000000000001","188","-0.063","-0.039","0.147","29.4500412","-40.2789474","20.8556712"
"1.8800000000000001","188","-0.016","0.018","-0.02","-0.286479","0.1145916","0.6302538"
"1.8800000000000001","188","-0.004","0.007","-0.007","0.0","-0.0572958","-0.0572958"
"1.8800000000000001","188","-0.016","0.001","0.0","-0.4583664","-1.145916","-5.844171599999999"
"1.8800000000000001","188","0.0","0.001","0.0","-0.0572958","0.0572958","0.0"
"1.8900000000000001","189","0.278","-0.076","0.011","1.145916","-1.0886202","-1.8334656"
"1.8900000000000001","189","-0.082","-0.007","0.125","36.2109456","-42.4561878","23.6631654"
"1.8900000000000001","189","-0.015","0.017","-0.016","-0.2291832","0.2291832","0.859437"
"1.8900000000000001","189","-0.005","0.007","-0.008","0.0","0.0572958","0.0"
"1.8900000000000001","189","-0.013","0.001","-0.001","-0.5156622","-1.432395","-6.2452422"
"1.8900000000000001","189","0.0","0.0","0.0","0.0","0.0572958","0.0"
"1.9000000000000001","190","0.282","-0.08","0.002","-0.9167328","-1.3750992","-2.4064236"
"1.9000000000000001","190","-0.091","0.029","0.107","38.6173692","-43.4875122","27.330096599999997"
"1.9000000000000001","190","-0.015","0.017","-0.017","-0.286479","0.1145916","0.859437"
"1.9000000000000001","190","-0.004","0.008","-0.008","0.0","0.0","0.0"
"1.9000000000000001","190","-0.007","0.003","-0.002","-0.572958","-1.7761698","-6.5317212"
"1.9000000000000001","190","0.0","0.001","0.0","0.0","0.0","0.0"
"1.9100000000000001","191","0.289","-0.08","0.001","-2.2345362","-1.7761698","-2.8074942000000003"
"1.9100000000000001","191","-0.088","0.072","0.119","42.398892","-44.2896534","32.544014399999995"
"1.9100000000000001","191","-0.015","0.016","-0.016","-0.1145916","0.0572958","0.572958"
"1.9100000000000001","191","-0.004","0.008","-0.007","0.0","-0.0572958","0.0"
"1.9100000000000001","191","-0.002","0.002","-0.005","-0.5156622","-2.0053530000000004","-6.703608600000001"
"1.9100000000000001","191","0.0","0.001","0.0","0.0572958","-0.0572958","0.0572958"
"1.92","192","0.284","-0.082","0.0","-2.2345362","-2.3491278","-3.0939731999999998"
"1.92","192","-0.102","0.148","0.15","49.9619376","-44.919907200000004","39.1330314"
"1.92","192","-0.014","0.017","-0.018","0.4010706","-0.286479","0.3437748"
"1.92","192","-0.005","0.007","-0.008","0.0","0.0572958","0.0572958"
"1.92","192","0.0","0.002","-0.007","-0.4010706","-2.1199445999999997","-6.875496"
"1.92","192","0.0","0.001","0.0","0.0","0.0572958","0.0"
"1.93","193","0.279","-0.084","0.007","-1.6615782000000001","-3.5523396","-2.6929026"
"1.93","193","-0.115","0.192","0.168","59.4730404","-46.982555999999995","48.0138804"
"1.93","193","-0.014","0.017","-0.018","0.6875496","-0.3437748","0.0572958"
"1.93","193","-0.004","0.006","-0.007","0.0","0.0","0.0572958"
"1.93","193","0.0","0.0","-0.008","-0.2291832","-2.0626488","-6.9900876"
"1.93","193","0.0","0.001","0.001","0.0","-0.1718874","0.0"
"1.94","194","0.276","-0.085","0.011","-0.286479","-3.8388186","-2.4637194"
"1.94","194","-0.134","0.184","0.147","65.2599162","-49.7327544","58.72819499999999"
"1.94","194","-0.014","0.017","-0.017","0.8021412","-0.5156622","0.0"
"1.94","194","-0.004","0.008","-0.008","0.0","0.0","0.0"
"1.94","194","-0.002","0.0","-0.005","0.0572958","-1.9480572","-6.9900876"
"1.94","194","0.0","0.001","0.0","0.0","0.0","0.0"
"1.95","195","0.279","-0.089","0.007","0.6875496","-3.9534102000000004","-2.3491278"
"1.95","195","-0.153","0.179","0.155","62.738901","-53.170502400000004","67.26526919999999"
"1.95","195","-0.014","0.016","-0.017","1.2032118","-0.8021412","-0.1145916"
"1.95","195","-0.004","0.007","-0.007","0.0","0.1145916","0.0"
"1.95","195","-0.004","-0.002","-0.003","0.4010706","-1.7761698","-6.875496"
"1.95","195","0.001","0.0","0.0","0.0","0.0","0.0"
"1.96","196","0.275","-0.094","0.005","0.9740286","-4.4117766","-2.4064236"
"1.96","196","-0.188","0.217","0.19","57.1812084","-57.1239126","75.63045600000001"
"1.96","196","-0.014","0.016","-0.016","1.145916","-0.6875496","-0.1718874"
"1.96","196","-0.004","0.006","-0.008","0.0","0.1718874","0.0"
"1.96","196","-0.005","0.0","-0.001","0.6875496","-1.718874","-6.5317212"
"1.96","196","0.0","0.0","0.0","0.0","-0.1145916","0.0"
"1.97","197","0.276","-0.1","0.005","0.8021412","-5.443101","-1.8334656"
"1.97","197","-0.215","0.267","0.253","56.9520252","-63.9994086","88.1782362"
"1.97","197","-0.013","0.016","-0.017","1.0313244","-0.4010706","-0.286479"
"1.97","197","-0.003","0.007","-0.008","0.0","0.0","0.0"
"1.97","197","-0.004","0.0","-0.001","1.0313244","-1.7761698","-5.9587632"
"1.97","197","0.0","0.001","-0.001","0.0","0.0","0.0572958"
"1.98","198","0.282","-0.104","0.004","0.3437748","-6.1879463999999995","-1.0313244"
"1.98","198","-0.249","0.284","0.268","64.3431834","-70.8176088","99.06443820000001"
"1.98","198","-0.014","0.016","-0.016","1.0313244","-0.6302538","-0.4583664"
"1.98","198","-0.004","0.007","-0.007","0.0","-0.0572958","0.0"
"1.98","198","0.0","0.001","-0.002","1.2032118","-1.9480572","-5.3285094"
"1.98","198","0.0","0.002","0.0","-0.0572958","0.1718874","0.0"
"1.99","199","0.284","-0.099","0.008","-1.2032118","-6.703608600000001","-0.6302538"
"1.99","199","-0.274","0.27","0.204","69.9581718","-77.2347384","112.1851764"
"1.99","199","-0.013","0.015","-0.016","1.2032118","-0.6302538","-0.572958"
"1.99","199","-0.004","0.007","-0.009","0.0572958","-0.2291832","0.0"
"1.99","199","0.003","0.0","-0.001","1.3750992","-2.0626488","-4.8128472"
"1.99","199","0.0","0.001","0.0","0.0","0.0572958","0.0"
"2.0","200","0.289","-0.092","0.017","-1.8334656","-7.0473834","-0.4010706"
"2.0","200","-0.281","0.171","0.12","67.26526919999999","-83.4226848","125.3059146"
"2.0","200","-0.013","0.015","-0.017","1.4896908","-0.9740286","-0.6302538"
"2.0","200","-0.004","0.006","-0.008","0.0","0.0","0.0"
"2.0","200","0.005","0.0","-0.001","1.4896908","-2.0626488","-4.4117766"
"2.0","200","0.0","0.001","-0.001","0.0572958","-0.0572958","0.0"
"2.0100000000000002","201","0.289","-0.085","0.027","-1.4896908","-7.906820400000001","-0.3437748"
"2.0100000000000002","201","-0.309","0.111","0.059","55.4050386","-85.5999252","131.9522274"
"2.0100000000000002","201","-0.013","0.016","-0.016","1.718874","-1.0886202","-0.8021412"
"2.0100000000000002","201","-0.004","0.007","-0.007","-0.0572958","0.0","-0.0572958"
"2.0100000000000002","201","0.003","0.0","-0.002","1.6615782000000001","-2.0053530000000004","-4.297185"
"2.0100000000000002","201","0.0","0.002","0.0","0.0","0.1718874","0.0"
"2.02","202","0.285","-0.084","0.04","-0.859437","-8.4224826","0.0"
"2.02","202","-0.341","0.123","0.087","39.591397799999996","-86.2874748","137.7391032"
"2.02","202","-0.013","0.016","-0.016","1.9480572","-1.2032118","-0.9740286"
"2.02","202","-0.004","0.007","-0.007","0.0","-0.1145916","0.0"
"2.02","202","0.0","0.001","-0.006","1.7761698","-1.9480572","-4.2398891999999995"
"2.02","202","-0.001","0.0","0.0","0.0572958","0.0","0.0"
"2.0300000000000002","203","0.283","-0.081","0.053","-0.8021412","-8.9381448","0.1145916"
"2.0300000000000002","203","-0.363","0.145","0.173","29.0489706","-89.6106312","145.1302614"
"2.0300000000000002","203","-0.014","0.015","-0.017","1.7761698","-1.0886202","-1.0313244"
"2.0300000000000002","203","-0.004","0.006","-0.007","0.0572958","-0.1145916","0.0"
"2.0300000000000002","203","-0.001","0.0","-0.008","2.0626488","-1.9480572","-4.068001799999999"
"2.0300000000000002","203","0.0","0.002","0.0","0.0","0.0572958","0.0"
"2.04","204","0.279","-0.079","0.071","-0.572958","-8.479778399999999","0.0"
"2.04","204","-0.391","0.138","0.21","30.0229992","-95.2256196","151.26091200000002"
"2.04","204","-0.013","0.017","-0.016","1.6042824","-1.0886202","-1.2032118"
"2.04","204","-0.003","0.006","-0.007","0.0","0.1145916","0.0"
"2.04","204","0.003","0.0","-0.003","2.5210152","-2.1772404","-3.724227"
"2.04","204","0.0","0.001","0.0","0.0","0.0","0.0"
"2.05","205","0.279","-0.08","0.089","0.0","-7.5057498","0.6302538"
"2.05","205","-0.427","0.121","0.207","34.091001","-99.75198780000001","157.6780416"
"2.05","205","-0.014","0.016","-0.015","1.432395","-0.9167328","-0.9167328"
"2.05","205","-0.004","0.007","-0.006","0.0","0.0","0.0"
"2.05","205","0.009","0.001","0.004","3.0366774","-2.4637194","-3.3231564000000002"
"2.05","205","0.0","0.0","0.0","0.0","0.0","0.0572958"
"2.06","206","0.279","-0.077","0.085","1.432395","-6.4171296","1.0886202"
"2.06","206","-0.436","0.075","0.187","39.4195104","-104.9086098","164.2670586"
"2.06","206","-0.015","0.016","-0.014","0.9740286","-0.6875496","-0.4010706"
"2.06","206","-0.004","0.007","-0.006","0.0572958","0.0","0.0"
"2.06","206","0.016","0.001","0.006","3.5523396","-2.6929026","-2.86479"
"2.06","206","0.0","0.0","-0.001","0.0572958","0.0","0.0"
"2.07","207","0.284","-0.073","0.075","1.3750992","-5.6149884000000005","0.859437"
"2.07","207","-0.46","0.031","0.129","38.5027776","-109.5495696","168.79342680000002"
"2.07","207","-0.016","0.017","-0.014","0.572958","-0.572958","0.8021412"
"2.07","207","-0.003","0.006","-0.006","0.0","0.0","0.0"
"2.07","207","0.021","0.002","0.012","3.8961144","-2.8074942000000003","-2.4637194"
"2.07","207","0.0","0.001","0.0","0.0","0.0572958","0.0"
"2.08","208","0.289","-0.068","0.068","1.3178034","-5.3285094","0.5156622"
"2.08","208","-0.436","-0.039","0.1","31.2835068","-112.1851764","172.0019916"
"2.08","208","-0.014","0.017","-0.012","0.1718874","-0.1145916","2.2345362"
"2.08","208","-0.004","0.006","-0.007","0.0","0.0","0.0"
"2.08","208","0.023","0.003","0.019","4.1825934","-2.7501984","-2.1199445999999997"
"2.08","208","0.0","0.001","0.0","0.0","-0.0572958","0.0"
"2.09","209","0.287","-0.068","0.066","1.0313244","-5.443101","0.0572958"
"2.09","209","-0.418","-0.073","0.076","23.9496444","-115.5656286","172.3457664"
"2.09","209","-0.014","0.017","-0.017","-0.4583664","0.1718874","3.3804521999999997"
"2.09","209","-0.002","0.006","-0.007","0.0","0.0","0.0"
"2.09","209","0.024","0.003","0.02","4.2398891999999995","-2.5210152","-1.9480572"
"2.09","209","0.0","0.0","0.0","0.0","0.0","0.0"
"2.1","210","0.292","-0.067","0.062","0.1145916","-5.0993262","-0.3437748"
"2.1","210","-0.431","-0.086","0.072","16.272007199999997","-117.91475639999999","172.3457664"
"2.1","210","-0.014","0.015","-0.015","-0.859437","0.4010706","3.5523396"
"2.1","210","-0.003","0.006","-0.006","0.0572958","-0.0572958","0.0"
"2.1","210","0.022","0.004","0.019","4.1252976","-2.291832","-1.8907614000000001"
"2.1","210","0.0","0.0","0.0","0.0","0.1145916","0.0572958"
"2.11","211","0.287","-0.066","0.07","-1.5469865999999999","-5.2712136","-1.145916"
"2.11","211","-0.412","-0.122","0.078","16.386598799999998","-117.45638999999998","170.6268924"
"2.11","211","-0.014","0.014","-0.018","-1.0313244","0.7448454","3.0939731999999998"
"2.11","211","-0.003","0.006","-0.006","0.0","0.0","0.0"
"2.11","211","0.019","0.006","0.016","4.010706000000001","-1.9480572","-1.8907614000000001"
"2.11","211","0.001","0.0","0.0","0.0","0.1145916","0.0"
"2.12","212","0.288","-0.064","0.088","-1.7761698","-4.6982556","-1.432395"
"2.12","212","-0.418","-0.136","0.06","15.9282324","-117.6855732","168.79342680000002"
"2.12","212","-0.013","0.015","-0.016","-1.145916","0.6875496","2.5210152"
"2.12","212","-0.004","0.007","-0.007","0.0","0.0","0.0"
"2.12","212","0.019","0.007","0.019","4.010706000000001","-1.718874","-1.8907614000000001"
"2.12","212","0.0","0.002","0.0","0.0572958","0.0","0.0"
"2.13","213","0.282","-0.062","0.096","-0.2291832","-4.1252976","-1.6042824"
"2.13","213","-0.417","-0.159","0.075","16.615782","-116.76884039999999","165.4702704"
"2.13","213","-0.013","0.015","-0.015","-0.9740286","0.5156622","2.6356068"
"2.13","213","-0.003","0.007","-0.006","0.0","-0.1145916","0.0572958"
"2.13","213","0.023","0.008","0.025","3.8388186","-1.6042824","-1.7761698"
"2.13","213","0.0","0.001","-0.001","0.0","0.0","0.0"
"2.14","214","0.28","-0.063","0.092","1.6615782000000001","-3.151269","-1.3178034"
"2.14","214","-0.421","-0.146","0.084","17.761698","-117.8574606","162.4908888"
"2.14","214","-0.013","0.015","-0.016","-1.2032118","0.6875496","2.86479"
"2.14","214","-0.004","0.007","-0.006","0.0","-0.1145916","0.0"
"2.14","214","0.029","0.01","0.03","3.6096354","-1.5469865999999999","-1.718874"
"2.14","214","0.0","0.0","0.0","0.0","0.1145916","0.0"
"2.15","215","0.283","-0.063","0.082","2.9220857999999996","-2.4637194","-1.5469865999999999"
"2.15","215","-0.436","-0.151","0.094","17.8189938","-120.03470100000001","161.9179308"
"2.15","215","-0.014","0.014","-0.016","-1.0886202","0.5156622","2.8074942000000003"
"2.15","215","-0.003","0.007","-0.006","0.0572958","0.0572958","0.0"
"2.15","215","0.031","0.011","0.03","3.2658606","-1.3178034","-1.6615782000000001"
"2.15","215","0.0","0.0","0.0","0.0572958","0.0572958","0.0"
"2.16","216","0.284","-0.066","0.074","3.2658606","-2.0053530000000004","-1.8907614000000001"
"2.16","216","-0.442","-0.153","0.103","20.1681216","-123.0713784","160.02716940000002"
"2.16","216","-0.013","0.013","-0.017","-0.8021412","0.3437748","2.5210152"
"2.16","216","-0.003","0.006","-0.006","0.0","-0.1145916","0.0"
"2.16","216","0.033","0.01","0.031","2.6929026","-0.9167328","-1.718874"
"2.16","216","0.0","0.001","0.001","0.0","0.0572958","0.0"
"2.17","217","0.283","-0.069","0.064","2.9220857999999996","-1.6042824","-2.291832"
"2.17","217","-0.424","-0.163","0.101","23.376686399999997","-126.1653516","158.76666179999998"
"2.17","217","-0.014","0.014","-0.013","-0.572958","0.4010706","2.4637194"
"2.17","217","-0.003","0.007","-0.006","0.0572958","-0.0572958","0.0"
"2.17","217","0.029","0.011","0.029","2.0626488","-0.4583664","-1.8907614000000001"
"2.17","217","0.0","0.001","0.0","0.0","0.1718874","0.0"
"2.18","218","0.281","-0.073","0.058","2.0053530000000004","-1.3750992","-2.9220857999999996"
"2.18","218","-0.414","-0.175","0.078","24.6944898","-129.488508","157.5061542"
"2.18","218","-0.013","0.016","-0.017","-0.572958","0.4010706","3.2658606"
"2.18","218","-0.004","0.007","-0.005","0.0572958","0.0","0.0"
"2.18","218","0.026","0.01","0.025","1.432395","0.1145916","-2.1199445999999997"
"2.18","218","0.0","0.001","0.0","0.0","-0.0572958","0.0"
"2.19","219","0.28","-0.076","0.062","0.7448454","-1.145916","-3.6669312"
"2.19","219","-0.394","-0.185","0.034","24.0069402","-132.8689602","155.9591676"
"2.19","219","-0.013","0.013","-0.018","-0.7448454","0.4583664","2.5210152"
"2.19","219","-0.004","0.006","-0.005","0.0","0.0572958","0.0"
"2.19","219","0.021","0.008","0.019","0.8021412","0.7448454","-2.3491278"
"2.19","219","0.0","0.001","-0.001","0.0","0.0572958","0.0"
"2.2","220","0.275","-0.081","0.068","0.5156622","-0.859437","-4.1825934"
"2.2","220","-0.382","-0.198","-0.009","20.798375399999998","-134.7597216","154.35488519999998"
"2.2","220","-0.012","0.014","-0.014","-0.2291832","0.1145916","2.291832"
"2.2","220","-0.003","0.007","-0.006","0.0572958","0.0","0.0"
"2.2","220","0.012","0.006","0.016","0.286479","1.432395","-2.6356068"
"2.2","220","0.0","0.001","-0.001","0.0","0.0572958","0.0"
"2.21","221","0.271","-0.092","0.07","1.2605076","-0.286479","-4.5263682"
"2.21","221","-0.385","-0.198","-0.021","19.824346799999997","-133.61380559999998","152.6360112"
"2.21","221","-0.013","0.014","-0.015","-0.4583664","0.1718874","2.0626488"
"2.21","221","-0.003","0.006","-0.006","0.0572958","0.0","0.0"
"2.21","221","0.007","0.005","0.015","0.0","1.9480572","-2.8074942000000003"
"2.21","221","0.0","0.0","0.0","0.0","0.0","0.0"
"2.22","222","0.264","-0.105","0.067","1.8907614000000001","0.1145916","-4.5263682"
"2.22","222","-0.385","-0.214","-0.038","22.173474600000002","-130.634424","150.3441792"
"2.22","222","-0.012","0.014","-0.017","-0.5156622","0.4010706","1.9480572"
"2.22","222","-0.003","0.006","-0.005","0.0572958","0.0572958","0.0"
"2.22","222","0.004","0.005","0.01","-0.286479","2.291832","-2.86479"
"2.22","222","0.0","0.0","0.0","0.0","0.0572958","0.0"
"2.23","223","0.263","-0.114","0.064","2.291832","0.7448454","-3.7815228000000003"
"2.23","223","-0.401","-0.209","-0.053","25.4393352","-125.6496894","146.677248"
"2.23","223","-0.013","0.014","-0.016","-0.6302538","0.2291832","1.4896908"
"2.23","223","-0.003","0.006","-0.005","0.0","0.0","0.0"
"2.23","223","0.002","0.003","0.007","-0.4583664","2.4637194","-2.8074942000000003"
"2.23","223","0.0","0.0","0.0","0.1145916","0.0","-0.0572958"
"2.24","224","0.264","-0.123","0.058","3.151269","1.5469865999999999","-2.9220857999999996"
"2.24","224","-0.428","-0.188","-0.045","25.6112226","-121.6962792","144.9010782"
"2.24","224","-0.013","0.014","-0.013","-0.4010706","0.1145916","1.6615782000000001"
"2.24","224","-0.003","0.006","-0.005","0.0","-0.0572958","0.0"
"2.24","224","0.0","0.002","0.004","-0.572958","2.5210152","-2.6929026"
"2.24","224","0.0","0.0","0.0","0.0","0.0","0.0"
"2.25","225","0.265","-0.125","0.046","3.151269","1.8907614000000001","-2.0626488"
"2.25","225","-0.422","-0.174","-0.044","26.2414764","-117.6282774","143.4113874"
"2.25","225","-0.014","0.014","-0.015","-0.286479","0.1145916","1.6615782000000001"
"2.25","225","-0.003","0.006","-0.006","0.0572958","0.0","-0.0572958"
"2.25","225","0.0","0.002","0.002","-0.6302538","2.578311","-2.6356068"
"2.25","225","0.0","0.001","0.0","0.0572958","-0.1145916","0.0"
"2.2600000000000002","226","0.27","-0.124","0.038","3.3231564000000002","1.432395","-1.2032118"
"2.2600000000000002","226","-0.411","-0.158","-0.001","27.1009134","-114.878079","144.098937"
"2.2600000000000002","226","-0.012","0.015","-0.017","-0.286479","0.2291832","1.6615782000000001"
"2.2600000000000002","226","-0.002","0.006","-0.005","0.0","0.0572958","-0.0572958"
"2.2600000000000002","226","-0.002","0.0","0.001","-0.6302538","2.6356068","-2.6356068"
"2.2600000000000002","226","0.0","0.001","0.0","0.0","0.0","-0.0572958"
"2.27","227","0.273","-0.122","0.029","3.2085648","0.7448454","-0.286479"
"2.27","227","-0.384","-0.143","-0.005","27.501984","-114.93537479999999","144.9010782"
"2.27","227","-0.013","0.014","-0.017","-0.5156622","0.2291832","0.859437"
"2.27","227","-0.003","0.006","-0.005","0.0572958","-0.1145916","0.0"
"2.27","227","-0.004","0.0","-0.001","-0.572958","2.6929026","-2.6356068"
"2.27","227","0.0","0.001","0.0","0.0","-0.0572958","0.0"
"2.2800000000000002","228","0.272","-0.121","0.021","2.6356068","0.1145916","0.1718874"
"2.2800000000000002","228","-0.374","-0.125","0.004","32.658606","-113.7894588","146.0469942"
"2.2800000000000002","228","-0.013","0.015","-0.016","-0.9740286","0.6875496","0.6302538"
"2.2800000000000002","228","-0.003","0.006","-0.004","0.0","0.0","0.0"
"2.2800000000000002","228","-0.008","0.0","-0.003","-0.4583664","2.7501984","-2.6929026"
"2.2800000000000002","228","0.0","0.001","0.0","0.0","0.0","0.0"
"2.29","229","0.272","-0.121","0.023","1.5469865999999999","-0.1718874","0.1718874"
"2.29","229","-0.38","-0.092","0.012","38.5027776","-113.6748672","147.6512766"
"2.29","229","-0.012","0.015","-0.015","-1.3178034","0.8021412","0.6302538"
"2.29","229","-0.003","0.005","-0.005","0.0","-0.0572958","0.0572958"
"2.29","229","-0.01","0.0","-0.004","-0.2291832","2.6929026","-2.578311"
"2.29","229","0.0","0.001","-0.001","0.0","0.0","-0.0572958"
"2.3000000000000003","230","0.269","-0.125","0.028","0.5156622","-0.2291832","0.286479"
"2.3000000000000003","230","-0.375","-0.106","-0.001","47.4409224","-111.9559932","151.6046868"
"2.3000000000000003","230","-0.013","0.014","-0.015","-1.4896908","0.859437","0.286479"
"2.3000000000000003","230","-0.003","0.007","-0.005","0.0","-0.1145916","0.0572958"
"2.3000000000000003","230","-0.012","0.0","-0.006","0.0","2.5210152","-2.2345362"
"2.3000000000000003","230","0.0","0.0","0.0","-0.0572958","0.0572958","0.0"
"2.31","231","0.265","-0.126","0.036","-0.4010706","-0.1145916","1.0886202"
"2.31","231","-0.378","-0.125","-0.022","53.571573","-109.89334439999999","153.6100398"
"2.31","231","-0.013","0.013","-0.014","-1.4896908","0.9740286","0.3437748"
"2.31","231","-0.003","0.006","-0.005","-0.0572958","0.0572958","0.0"
"2.31","231","-0.009","0.0","-0.007","0.286479","2.1772404","-1.6615782000000001"
"2.31","231","0.0","0.001","0.0","0.0","0.0","0.0"
"2.32","232","0.265","-0.123","0.041","-0.286479","0.1145916","1.8334656"
"2.32","232","-0.385","-0.123","-0.042","55.576926","-107.25773760000001","154.4694768"
"2.32","232","-0.012","0.013","-0.015","-1.2605076","0.6302538","0.286479"
"2.32","232","-0.003","0.006","-0.004","0.0","0.0572958","0.0"
"2.32","232","-0.003","0.0","-0.004","0.6875496","1.8907614000000001","-0.9740286"
"2.32","232","0.0","0.001","0.0","0.0572958","-0.1145916","0.0"
"2.33","233","0.268","-0.112","0.042","0.2291832","0.4010706","2.9793816"
"2.33","233","-0.387","-0.119","-0.051","52.4829528","-104.7940182","156.5894214"
"2.33","233","-0.013","0.013","-0.015","-0.8021412","0.4583664","0.1718874"
"2.33","233","-0.003","0.006","-0.004","0.0","-0.0572958","0.0"
"2.33","233","0.0","0.001","-0.002","1.0886202","1.6615782000000001","-0.3437748"
"2.33","233","0.001","0.001","0.0","0.0","0.1145916","0.0"
"2.34","234","0.271","-0.101","0.034","1.2032118","0.7448454","3.6669312"
"2.34","234","-0.39","-0.113","-0.028","47.269034999999995","-102.27300299999999","161.5168602"
"2.34","234","-0.013","0.013","-0.015","-0.6302538","0.1718874","0.1145916"
"2.34","234","-0.002","0.006","-0.004","0.0","0.0572958","0.0"
"2.34","234","0.0","0.002","-0.002","1.3750992","1.5469865999999999","0.1718874"
"2.34","234","0.001","0.001","0.0","0.0","0.0","0.0"
"2.35","235","0.269","-0.093","0.022","1.145916","0.286479","4.1252976"
"2.35","235","-0.367","-0.129","-0.004","44.2896534","-101.2989744","163.4076216"
"2.35","235","-0.012","0.013","-0.015","-0.286479","0.0572958","0.0572958"
"2.35","235","-0.002","0.005","-0.004","-0.0572958","0.1718874","0.0572958"
"2.35","235","0.0","0.0","-0.002","1.6042824","1.4896908","0.572958"
"2.35","235","0.0","0.0","0.0","0.0572958","0.0572958","0.0"
"2.36","236","0.281","-0.078","0.019","0.1718874","0.0572958","4.2398891999999995"
"2.36","236","-0.349","-0.137","0.02","41.7686382","-100.6687206","163.9805796"
"2.36","236","-0.012","0.013","-0.014","0.286479","-0.1718874","0.0"
"2.36","236","-0.003","0.005","-0.005","0.0","-0.2291832","0.0"
"2.36","236","0.0","0.0","0.0","1.8334656","1.4896908","0.859437"
"2.36","236","0.0","0.001","0.0","0.0","0.1718874","0.0"
"2.37","237","0.286","-0.063","0.022","-0.5156622","-0.2291832","3.8388186"
"2.37","237","-0.348","-0.12","0.071","42.2843004","-101.3562702","165.298383"
"2.37","237","-0.011","0.013","-0.014","0.4583664","-0.1718874","-0.0572958"
"2.37","237","-0.002","0.006","-0.004","0.0","-0.1145916","0.0"
"2.37","237","-0.001","0.003","0.002","2.0626488","1.4896908","0.9740286"
"2.37","237","0.0","0.001","0.0","0.0","0.0","0.0572958"
"2.38","238","0.283","-0.056","0.024","-0.286479","-0.2291832","3.2658606"
"2.38","238","-0.336","-0.128","0.113","47.2117392","-102.559482","166.8453696"
"2.38","238","-0.011","0.013","-0.013","0.6302538","-0.2291832","0.0"
"2.38","238","-0.002","0.005","-0.005","0.0","0.0572958","0.0"
"2.38","238","-0.006","0.003","0.004","2.2345362","1.432395","1.0313244"
"2.38","238","0.0","0.0","0.0","0.0572958","0.0572958","0.0"
"2.39","239","0.276","-0.053","0.025","0.5156622","-0.4010706","2.7501984"
"2.39","239","-0.325","-0.154","0.147","53.7434604","-106.1118216","166.9599612"
"2.39","239","-0.01","0.013","-0.012","0.572958","-0.3437748","-0.1145916"
"2.39","239","-0.002","0.006","-0.004","0.0","0.0","0.0"
"2.39","239","-0.007","0.005","0.004","2.4064236","1.3178034","1.0886202"
"2.39","239","0.0","0.002","0.0","-0.1145916","0.1718874","0.0"
"2.4","240","0.278","-0.053","0.026","0.9167328","0.0","2.4064236"
"2.4","240","-0.316","-0.178","0.167","59.129265600000004","-111.6122184","166.5588906"
"2.4","240","-0.01","0.013","-0.013","0.3437748","-0.1145916","-0.1718874"
"2.4","240","-0.003","0.005","-0.005","0.0","-0.1145916","0.0"
"2.4","240","-0.004","0.005","0.002","2.4637194","1.0886202","1.145916"
"2.4","240","0.0","0.0","0.0","-0.0572958","0.0572958","0.0"
"2.41","241","0.278","-0.053","0.024","1.0313244","0.3437748","1.8334656"
"2.41","241","-0.314","-0.207","0.161","63.426450599999995","-115.5656286","163.9805796"
"2.41","241","-0.011","0.013","-0.012","0.286479","-0.1145916","-0.2291832"
"2.41","241","-0.003","0.005","-0.004","-0.0572958","-0.0572958","0.0"
"2.41","241","-0.001","0.004","0.004","2.5210152","0.859437","1.2032118"
"2.41","241","0.0","0.001","0.0","0.0572958","-0.1145916","0.0"
"2.42","242","0.277","-0.053","0.016","1.3750992","0.4583664","1.8334656"
"2.42","242","-0.315","-0.215","0.158","67.5517482","-118.60230599999998","161.6314518"
"2.42","242","-0.011","0.012","-0.012","0.286479","-0.0572958","-0.2291832"
"2.42","242","-0.003","0.005","-0.003","0.0","0.286479","0.0"
"2.42","242","0.002","0.004","0.004","2.6929026","0.6875496","1.2032118"
"2.42","242","0.0","0.001","0.0","0.0","0.0572958","0.0"
"2.43","243","0.281","-0.049","0.005","0.7448454","0.4583664","1.432395"
"2.43","243","-0.325","-0.212","0.15","70.18735500000001","-119.86281360000001","158.995845"
"2.43","243","-0.01","0.011","-0.011","0.4010706","-0.1718874","-0.286479"
"2.43","243","-0.002","0.005","-0.005","0.0","0.0","0.0"
"2.43","243","0.004","0.005","0.006","2.8074942000000003","0.6302538","1.145916"
"2.43","243","0.0","0.0","0.0","0.0","0.0572958","0.0"
"2.44","244","0.283","-0.043","0.005","0.1718874","0.0","0.859437"
"2.44","244","-0.336","-0.18","0.156","71.44786260000001","-120.66495479999999","159.4542114"
"2.44","244","-0.01","0.012","-0.011","0.1718874","0.0","-0.286479"
"2.44","244","-0.002","0.006","-0.004","0.0","0.0","-0.0572958"
"2.44","244","0.005","0.009","0.011","2.9220857999999996","0.7448454","1.0313244"
"2.44","244","0.0","0.0","0.0","0.0572958","0.0572958","0.0"
"2.45","245","0.284","-0.04","0.008","0.4583664","-0.6875496","0.0"
"2.45","245","-0.328","-0.189","0.164","74.31265259999999","-121.5243918","159.0531408"
"2.45","245","-0.01","0.011","-0.012","0.0","0.0572958","-0.1145916"
"2.45","245","-0.003","0.006","-0.004","0.0","0.1145916","0.0"
"2.45","245","0.001","0.004","0.014","2.9220857999999996","0.9740286","0.859437"
"2.45","245","0.0","0.001","0.0","0.0","0.0","0.0"
"2.46","246","0.284","-0.044","0.013","1.3178034","-1.5469865999999999","-0.572958"
"2.46","246","-0.321","-0.188","0.157","76.0888224","-122.4984204","157.276971"
"2.46","246","-0.01","0.012","-0.012","-0.3437748","0.2291832","-0.1718874"
"2.46","246","-0.002","0.006","-0.004","0.0","0.0","0.0"
"2.46","246","-0.005","0.001","0.017","2.7501984","1.2605076","0.6302538"
"2.46","246","0.0","0.0","0.0","0.0","0.0","0.0"
"2.47","247","0.279","-0.05","0.013","1.145916","-1.6042824","-1.2032118"
"2.47","247","-0.313","-0.177","0.152","75.5158644","-123.3578574","156.3602382"
"2.47","247","-0.01","0.012","-0.011","-0.859437","0.5156622","-0.1145916"
"2.47","247","-0.002","0.005","-0.004","0.0","0.0","0.0"
"2.47","247","-0.013","0.0","0.016","2.4637194","1.3750992","0.4583664"
"2.47","247","0.0","0.0","0.0","0.1145916","-0.1718874","0.0"
"2.48","248","0.278","-0.059","0.015","0.6302538","-1.6615782000000001","-1.8334656"
"2.48","248","-0.287","-0.2","0.158","74.5991316","-125.191323","154.8132516"
"2.48","248","-0.009","0.009","-0.011","-1.0313244","0.8021412","-0.0572958"
"2.48","248","-0.003","0.006","-0.004","0.0","0.1145916","-0.0572958"
"2.48","248","-0.014","0.0","0.013","2.0053530000000004","1.3750992","0.286479"
"2.48","248","0.0","0.001","0.0","0.1145916","0.0","0.0"
"2.49","249","0.275","-0.068","0.021","-0.0572958","-1.5469865999999999","-2.3491278"
"2.49","249","-0.271","-0.22","0.137","75.8596392","-125.8215768","149.4274464"
"2.49","249","-0.01","0.01","-0.01","-0.8021412","0.6875496","-0.0572958"
"2.49","249","-0.002","0.005","-0.004","0.0","0.0572958","0.0"
"2.49","249","-0.014","0.004","0.008","1.6042824","1.145916","0.286479"
"2.49","249","0.0","0.001","0.0","0.0","0.2291832","0.0"
"2.5","250","0.272","-0.074","0.027","0.6302538","-1.3178034","-2.3491278"
"2.5","250","-0.276","-0.189","0.155","78.2660628","-126.50912640000001","144.3281202"
"2.5","250","-0.009","0.01","-0.011","-0.6875496","0.4583664","-0.0572958"
"2.5","250","-0.002","0.004","-0.002","0.0","0.0572958","0.0"
"2.5","250","-0.011","0.002","0.002","1.2605076","0.8021412","0.3437748"
"2.5","250","0.0","0.001","0.0","0.1145916","-0.1145916","0.0"
"2.5100000000000002","251","0.266","-0.082","0.025","1.2605076","-1.5469865999999999","-2.0053530000000004"
"2.5100000000000002","251","-0.269","-0.189","0.133","83.651868","-124.56106919999999","143.2395"
"2.5100000000000002","251","-0.009","0.01","-0.01","-0.4583664","0.2291832","-0.0572958"
"2.5100000000000002","251","-0.002","0.005","-0.004","0.0","0.0","0.0"
"2.5100000000000002","251","-0.007","0.004","0.0","1.0313244","0.4010706","0.5156622"
"2.5100000000000002","251","0.0","0.0","0.0","0.0572958","0.0","0.0"
"2.52","252","0.266","-0.093","0.021","0.9740286","-2.0053530000000004","-1.432395"
"2.52","252","-0.25","-0.181","0.087","85.1988546","-122.3838288","135.7337502"
"2.52","252","-0.009","0.01","-0.01","-0.3437748","0.2291832","-0.1145916"
"2.52","252","-0.002","0.006","-0.003","0.0","0.0","0.0"
"2.52","252","-0.003","0.006","0.0","1.0313244","0.1718874","0.7448454"
"2.52","252","0.0","0.001","0.0","0.0","0.0","0.0"
"2.5300000000000002","253","0.266","-0.094","0.027","-0.286479","-2.1199445999999997","-0.9167328"
"2.5300000000000002","253","-0.25","-0.176","0.053","86.34477059999999","-114.64889579999999","136.1348208"
"2.5300000000000002","253","-0.01","0.009","-0.01","-0.0572958","0.0572958","-0.1145916"
"2.5300000000000002","253","-0.001","0.006","-0.004","0.0","0.0572958","0.0"
"2.5300000000000002","253","-0.002","0.005","0.002","1.0886202","0.0","1.0313244"
"2.5300000000000002","253","0.0","0.001","0.0","0.0","-0.1145916","-0.0572958"
"2.54","254","0.266","-0.093","0.039","-0.8021412","-2.6929026","-0.572958"
"2.54","254","-0.256","-0.158","0.01","83.93834700000001","-108.28906199999999","136.42129979999999"
"2.54","254","-0.009","0.009","-0.009","0.0572958","0.0","-0.1718874"
"2.54","254","-0.002","0.006","-0.003","0.0","0.0572958","0.0"
"2.54","254","-0.001","0.004","0.003","1.145916","0.0","1.3178034"
"2.54","254","0.0","0.001","0.0","0.0","-0.0572958","0.0572958"
"2.5500000000000003","255","0.26","-0.086","0.051","0.0","-2.7501984","0.1718874"
"2.5500000000000003","255","-0.253","-0.149","-0.025","82.79243100000001","-100.0957626","135.27538380000001"
"2.5500000000000003","255","-0.008","0.009","-0.01","0.1718874","-0.0572958","-0.286479"
"2.5500000000000003","255","-0.002","0.006","-0.004","0.0","-0.1145916","0.0"
"2.5500000000000003","255","-0.001","0.003","0.006","1.2605076","-0.1145916","1.718874"
"2.5500000000000003","255","0.0","0.002","0.0","0.0","0.0572958","0.0"
"2.56","256","0.262","-0.082","0.055","0.5156622","-2.291832","0.4010706"
"2.56","256","-0.242","-0.157","-0.048","79.927641","-84.6258966","130.8636072"
"2.56","256","-0.009","0.009","-0.01","0.1145916","-0.1145916","-0.4010706"
"2.56","256","-0.002","0.005","-0.003","0.0","0.0","0.0"
"2.56","256","0.0","0.002","0.009","1.3178034","-0.1718874","2.2345362"
"2.56","256","0.0","0.001","0.0","-0.0572958","0.1718874","-0.0572958"
"2.57","257","0.263","-0.079","0.05","0.1145916","-1.8334656","0.1718874"
"2.57","257","-0.237","-0.153","-0.072","76.77637200000001","-72.5937786","126.337239"
"2.57","257","-0.008","0.01","-0.01","-0.1718874","0.0572958","-0.5156622"
"2.57","257","-0.002","0.005","-0.004","0.0","0.1145916","0.0"
"2.57","257","0.0","0.003","0.009","1.2605076","-0.2291832","2.6929026"
"2.57","257","0.0","0.001","-0.001","0.0572958","0.0","-0.0572958"
"2.58","258","0.263","-0.077","0.046","-1.432395","-1.2605076","-0.3437748"
"2.58","258","-0.237","-0.144","-0.057","71.046792","-59.014674","123.47244899999998"
"2.58","258","-0.009","0.009","-0.009","-0.4583664","0.2291832","-0.4583664"
"2.58","258","-0.002","0.006","-0.003","0.0","0.0","0.0"
"2.58","258","0.0","0.001","0.004","1.145916","-0.1718874","3.0939731999999998"
"2.58","258","0.0","0.001","0.0","0.0572958","0.0572958","0.0"
"2.59","259","0.263","-0.073","0.05","-3.3804521999999997","-0.9740286","-0.9167328"
"2.59","259","-0.214","-0.135","-0.014","68.2965936","-47.269034999999995","121.5243918"
"2.59","259","-0.009","0.009","-0.009","-0.4010706","0.286479","-0.4010706"
"2.59","259","-0.002","0.005","-0.003","0.0","0.0","0.0"
"2.59","259","-0.001","0.003","0.002","1.0313244","-0.1718874","3.437748"
"2.59","259","0.0","0.001","0.0","0.0","0.0572958","0.0"
"2.6","260","0.258","-0.074","0.049","-3.4950438","-0.286479","-1.6042824"
"2.6","260","-0.19","-0.15","0.011","68.182002","-38.8465524","119.34715140000002"
"2.6","260","-0.008","0.008","-0.009","-0.286479","0.0","-0.3437748"
"2.6","260","-0.002","0.005","-0.003","0.0","0.1718874","0.0"
"2.6","260","-0.001","0.002","0.001","0.9740286","-0.1145916","3.6669312"
"2.6","260","0.0","0.001","0.0","0.0572958","0.0","0.0"
"2.61","261","0.261","-0.081","0.042","-5.443101","0.0572958","-2.3491278"
"2.61","261","-0.184","-0.15","0.07","67.4944524","-31.340802600000004","117.0553194"
"2.61","261","-0.007","0.008","-0.009","-0.1718874","0.1718874","-0.3437748"
"2.61","261","-0.002","0.005","-0.004","0.0","0.0","0.0"
"2.61","261","0.0","0.002","-0.001","0.9740286","0.0","3.8388186"
"2.61","261","0.0","0.001","0.0","0.0","0.1145916","0.0"
"2.62","262","0.253","-0.079","0.062","-7.161975","0.1718874","-2.6356068"
"2.62","262","-0.159","-0.173","0.117","71.1040878","-27.3873924","115.68022020000001"
"2.62","262","-0.008","0.007","-0.009","0.1718874","0.0","-0.3437748"
"2.62","262","-0.002","0.006","-0.004","0.0","0.0","0.0"
"2.62","262","0.0","0.004","-0.001","1.145916","0.0572958","3.8388186"
"2.62","262","0.001","0.001","0.0","0.0","0.0572958","-0.0572958"
"2.63","263","0.249","-0.076","0.084","-5.2712136","0.9740286","-2.1772404"
"2.63","263","-0.145","-0.197","0.141","75.63045600000001","-25.3247436","111.7841058"
"2.63","263","-0.007","0.007","-0.008","0.4010706","-0.1718874","-0.4010706"
"2.63","263","-0.002","0.005","-0.002","0.0","0.0","0.0"
"2.63","263","-0.002","0.004","0.0","1.3750992","0.2291832","3.8388186"
"2.63","263","0.0","0.0","0.0","0.0572958","-0.0572958","0.0"
"2.64","264","0.246","-0.077","0.076","-0.6302538","2.0626488","-1.4896908"
"2.64","264","-0.136","-0.226","0.16","81.7611066","-22.91832","106.4555964"
"2.64","264","-0.007","0.009","-0.009","0.4010706","-0.286479","-0.572958"
"2.64","264","-0.002","0.006","-0.003","0.0","0.0","0.0"
"2.64","264","-0.004","0.006","0.0","1.5469865999999999","0.2291832","3.8388186"
"2.64","264","0.0","0.001","0.0","0.0572958","-0.0572958","0.0"
"2.65","265","0.249","-0.084","0.057","1.8334656","2.6356068","-0.859437"
"2.65","265","-0.12","-0.268","0.157","87.6052782","-21.2567418","101.70004499999999"
"2.65","265","-0.007","0.008","-0.008","0.4583664","-0.3437748","-0.9740286"
"2.65","265","-0.002","0.006","-0.003","0.0","0.0","0.0"
"2.65","265","-0.005","0.004","0.003","1.7761698","0.286479","3.7815228000000003"
"2.65","265","0.0","0.001","0.0","0.0","0.1145916","0.0"
"2.66","266","0.253","-0.088","0.037","2.2345362","3.0939731999999998","-0.4010706"
"2.66","266","-0.104","-0.321","0.137","91.67328","-19.9962342","95.11102799999999"
"2.66","266","-0.007","0.008","-0.008","0.3437748","-0.3437748","-0.9740286"
"2.66","266","-0.001","0.005","-0.003","0.0","0.0572958","0.0572958"
"2.66","266","-0.004","0.005","0.006","1.9480572","0.1718874","3.7815228000000003"
"2.66","266","0.0","0.001","0.0","0.0572958","-0.0572958","0.0"
"2.67","267","0.258","-0.088","0.02","1.718874","2.9793816","-0.2291832"
"2.67","267","-0.077","-0.376","0.108","91.2149136","-17.3606274","86.516658"
"2.67","267","-0.008","0.008","-0.009","0.2291832","-0.1145916","-0.859437"
"2.67","267","-0.002","0.005","-0.003","0.0","0.0","0.0"
"2.67","267","-0.002","0.007","0.01","1.9480572","0.0","3.724227"
"2.67","267","0.0","0.001","0.0","0.0572958","0.0","0.0572958"
"2.68","268","0.261","-0.087","0.006","1.3750992","1.8907614000000001","0.0"
"2.68","268","-0.063","-0.41","0.073","86.45936219999999","-15.756345000000001","77.5212174"
"2.68","268","-0.009","0.009","-0.008","0.0572958","0.0","-0.9740286"
"2.68","268","-0.001","0.005","-0.004","0.0572958","0.0572958","0.0"
"2.68","268","0.001","0.004","0.009","1.8907614000000001","-0.1145916","3.6669312"
"2.68","268","0.0","0.001","0.0","-0.0572958","0.1718874","0.0"
"2.69","269","0.266","-0.086","0.002","0.8021412","0.5156622","0.0572958"
"2.69","269","-0.038","-0.437","0.075","79.75575359999999","-11.45916","75.4012728"
"2.69","269","-0.008","0.008","-0.008","-0.2291832","0.2291832","-0.572958"
"2.69","269","-0.002","0.006","-0.003","0.0","0.0","0.0"
"2.69","269","0.003","0.004","0.01","1.7761698","-0.1718874","3.437748"
"2.69","269","0.0","0.001","0.0","0.0","-0.0572958","0.0"
"2.7","270","0.264","-0.084","0.015","0.7448454","-0.0572958","0.0572958"
"2.7","270","-0.014","-0.487","0.067","70.3592424","-9.5683986","68.9268474"
"2.7","270","-0.008","0.007","-0.008","-0.4010706","0.3437748","-0.5156622"
"2.7","270","-0.001","0.005","-0.003","0.0","0.0","0.0"
"2.7","270","0.003","0.005","0.012","1.6042824","-0.1145916","3.2085648"
"2.7","270","0.0","0.001","0.0","0.0","-0.0572958","0.0"
"2.71","271","0.259","-0.083","0.02","0.859437","-0.1145916","0.2291832"
"2.71","271","0.01","-0.511","0.073","68.01011460000001","-8.3651868","61.020027"
"2.71","271","-0.007","0.007","-0.007","-0.5156622","0.4010706","-0.3437748"
"2.71","271","-0.001","0.005","-0.003","0.0","-0.0572958","-0.0572958"
"2.71","271","0.002","0.006","0.013","1.3750992","0.0","2.8074942000000003"
"2.71","271","0.0","0.0","0.0","0.0","0.1718874","0.0"
"2.72","272","0.258","-0.08","0.024","1.4896908","-0.286479","0.6302538"
"2.72","272","0.027","-0.545","0.057","64.2285918","-7.448454","51.451628400000004"
"2.72","272","-0.006","0.007","-0.008","-0.5156622","0.3437748","-0.286479"
"2.72","272","-0.001","0.005","-0.002","0.0","0.0572958","0.0"
"2.72","272","0.002","0.005","0.012","1.0313244","0.0572958","2.4637194"
"2.72","272","0.0","0.001","0.0","0.0","0.0","-0.0572958"
"2.73","273","0.258","-0.077","0.022","1.7761698","-0.3437748","0.8021412"
"2.73","273","0.025","-0.539","0.032","60.2178858","-6.0733548","44.5761324"
"2.73","273","-0.007","0.007","-0.008","-0.3437748","0.4010706","-0.2291832"
"2.73","273","-0.001","0.005","-0.003","0.0","0.1145916","0.0"
"2.73","273","0.002","0.004","0.013","0.6302538","0.1145916","2.0626488"
"2.73","273","0.0","0.0","-0.001","0.0","-0.1718874","0.0"
"2.74","274","0.262","-0.07","0.021","2.291832","-0.3437748","1.2032118"
"2.74","274","0.036","-0.56","-0.007","52.6548402","-3.2658606","38.3308902"
"2.74","274","-0.007","0.006","-0.008","-0.4010706","0.2291832","-0.2291832"
"2.74","274","-0.001","0.005","-0.003","0.0","0.0","0.0"
"2.74","274","0.002","0.004","0.013","0.2291832","0.1145916","1.6615782000000001"
"2.74","274","0.0","0.001","0.0","0.0","0.0572958","0.0"
"2.75","275","0.263","-0.066","0.016","2.6929026","-0.1718874","0.859437"
"2.75","275","0.044","-0.559","-0.016","42.2843004","0.8021412","31.054323600000004"
"2.75","275","-0.005","0.007","-0.008","-0.1718874","0.1718874","-0.4583664"
"2.75","275","-0.001","0.006","-0.002","0.0","0.0","0.0"
"2.75","275","0.006","0.005","0.009","-0.1145916","0.0","1.3178034"
"2.75","275","0.0","0.001","0.0","-0.0572958","0.1145916","-0.0572958"
"2.7600000000000002","276","0.265","-0.061","0.01","2.6929026","-0.572958","0.8021412"
"2.7600000000000002","276","0.057","-0.558","-0.017","33.518043","4.7555514","23.376686399999997"
"2.7600000000000002","276","-0.006","0.007","-0.008","0.0","-0.0572958","-0.6302538"
