"TimeStamp","FrameCounter","AccX","AccY","AccZ","GyrX","GyrY","GyrZ"
"0.01","1","0.041","0.004","0.03","-8.307891","-0.859437","1.8907614000000001"
"0.01","1","-0.091","0.175","-0.12","7.3911582000000005","-1.2032118","-1.4896908"
"0.01","1","0.004","0.015","0.0","-0.1145916","0.1718874","-0.3437748"
"0.01","1","0.003","0.009","-0.002","1.0313244","-0.5156622","-0.286479"
"0.01","1","0.008","0.03","0.007","-2.8074942000000003","2.6356068","-0.2291832"
"0.01","1","0.009","-0.006","0.005","0.572958","-0.572958","0.4010706"
"0.02","2","0.079","0.012","-0.019","-8.7089616","-0.6302538","1.3178034"
"0.02","2","-0.077","0.176","-0.103","7.8495246000000005","-1.2605076","-1.4896908"
"0.02","2","0.01","0.028","0.0","-0.2291832","0.5156622","-0.2291832"
"0.02","2","0.003","0.018","0.002","0.5156622","0.0572958","-0.1718874"
"0.02","2","0.025","0.042","0.012","-1.432395","1.3750992","-0.9740286"
"0.02","2","0.007","-0.007","0.013","0.4583664","-0.2291832","-0.1718874"
"0.03","3","0.079","0.008","-0.04","-5.156622","-0.8021412","1.2605076"
"0.03","3","-0.059","0.187","-0.091","6.016058999999999","-1.145916","-1.5469865999999999"
"0.03","3","0.011","0.025","0.002","-0.3437748","0.6302538","-0.3437748"
"0.03","3","0.0","0.017","0.004","0.4010706","0.2291832","-0.1718874"
"0.03","3","0.026","0.043","0.007","-0.9167328","0.6875496","-1.432395"
"0.03","3","0.004","-0.009","0.009","0.4010706","-0.0572958","0.2291832"
"0.04","4","0.074","0.005","-0.056","0.8021412","-0.9740286","1.7761698"
"0.04","4","-0.055","0.187","-0.093","4.010706000000001","-1.3178034","-1.8334656"
"0.04","4","0.009","0.019","0.002","-0.4583664","0.5156622","-0.3437748"
"0.04","4","-0.004","0.009","0.005","-0.0572958","0.2291832","-0.1718874"
"0.04","4","0.027","0.043","0.002","-0.6302538","0.286479","-1.6615782000000001"
"0.04","4","0.001","-0.006","0.0","0.6302538","-0.0572958","0.6302538"
"0.05","5","0.056","0.006","-0.042","8.136003599999999","-2.0626488","2.4637194"
"0.05","5","-0.067","0.183","-0.091","3.3231564000000002","-1.3178034","-2.1772404"
"0.05","5","0.004","0.016","0.001","-0.3437748","0.0","-0.4010706"
"0.05","5","-0.002","0.004","0.001","-0.1145916","0.0572958","-0.2291832"
"0.05","5","0.026","0.043","0.002","-0.4583664","0.0572958","-1.8334656"
"0.05","5","0.002","-0.007","-0.007","1.2605076","-0.572958","1.0886202"
"0.06","6","0.054","0.016","-0.006","10.8289062","-3.0366774","2.86479"
"0.06","6","-0.082","0.183","-0.086","3.437748","-1.145916","-2.5210152"
"0.06","6","0.006","0.017","0.0","-0.1145916","-0.5156622","-0.4010706"
"0.06","6","0.002","0.012","-0.003","0.0","-0.2291832","-0.2291832"
"0.06","6","0.026","0.042","0.002","-0.4010706","-0.0572958","-1.8907614000000001"
"0.06","6","0.006","-0.006","-0.008","0.859437","0.1718874","1.0886202"
"0.07","7","0.067","0.021","0.02","9.6256944","-3.9534102000000004","2.5210152"
"0.07","7","-0.085","0.181","-0.091","3.3804521999999997","-0.572958","-2.7501984"
"0.07","7","0.008","0.016","0.0","-0.1145916","-0.9167328","-0.2291832"
"0.07","7","0.005","0.02","-0.004","0.0572958","-0.1718874","-0.3437748"
"0.07","7","0.023","0.041","0.004","-0.4583664","-0.2291832","-1.8907614000000001"
"0.07","7","0.008","-0.005","-0.003","-0.4583664","1.3178034","0.6875496"
"0.08","8","0.076","0.019","0.028","5.5576926","-4.9847345999999995","1.718874"
"0.08","8","-0.089","0.17","-0.091","3.7815228000000003","-0.0572958","-3.2085648"
"0.08","8","0.009","0.014","-0.001","0.0","-1.3178034","-0.1145916"
"0.08","8","0.005","0.022","-0.004","-0.0572958","-0.5156622","-0.4010706"
"0.08","8","0.017","0.04","0.005","-0.572958","-0.4010706","-1.9480572"
"0.08","8","0.009","0.001","0.0","-1.4896908","1.718874","0.1718874"
"0.09","9","0.082","0.006","0.016","1.0313244","-5.9587632","0.9740286"
"0.09","9","-0.089","0.155","-0.071","4.2398891999999995","-0.286479","-3.151269"
"0.09","9","0.007","0.015","-0.001","0.0","-1.432395","-0.0572958"
"0.09","9","0.004","0.02","-0.004","-0.0572958","-1.0313244","-0.2291832"
"0.09","9","0.012","0.04","0.013","-0.9167328","-0.572958","-2.4064236"
"0.09","9","0.011","0.007","0.004","-2.3491278","2.9220857999999996","-0.2291832"
"0.1","10","0.088","0.0","0.001","-0.1718874","-6.589017","0.2291832"
"0.1","10","-0.072","0.148","-0.05","4.7555514","-0.7448454","-2.7501984"
"0.1","10","0.003","0.015","0.0","-0.0572958","-1.3750992","-0.0572958"
"0.1","10","0.006","0.017","0.0","0.0572958","-1.2605076","-0.1718874"
"0.1","10","0.013","0.043","0.025","-1.3178034","-0.859437","-3.3231564000000002"
"0.1","10","0.015","0.002","0.005","-2.9793816","3.5523396","-0.4583664"
"0.11","11","0.077","-0.009","-0.027","1.2032118","-7.5057498","-0.572958"
"0.11","11","-0.046","0.137","-0.061","4.3544808","-2.0626488","-2.1772404"
"0.11","11","0.0","0.016","0.002","-0.1145916","-1.5469865999999999","-0.1145916"
"0.11","11","0.004","0.012","0.005","0.2291832","-0.9740286","0.0"
"0.11","11","0.024","0.045","0.017","-2.0053530000000004","-1.2032118","-4.2398891999999995"
"0.11","11","0.011","-0.006","0.004","-2.7501984","3.2658606","-0.4010706"
"0.12","12","0.067","-0.018","-0.051","5.0420304","-7.906820400000001","-0.5156622"
"0.12","12","-0.038","0.156","-0.075","4.6409598","-3.2658606","-2.1199445999999997"
"0.12","12","-0.003","0.016","0.006","0.0","-1.5469865999999999","-0.0572958"
"0.12","12","0.001","0.006","0.008","0.286479","-0.859437","0.0572958"
"0.12","12","0.031","0.042","0.0","-2.6929026","-1.3750992","-4.8128472"
"0.12","12","0.013","0.0","0.005","-2.1772404","3.3804521999999997","-0.1145916"
"0.13","13","0.069","-0.021","-0.053","9.740286000000001","-8.6516658","0.0"
"0.13","13","-0.046","0.161","-0.064","6.4171296","-3.7815228000000003","-1.8907614000000001"
"0.13","13","-0.002","0.023","0.007","0.6302538","-1.3750992","-0.0572958"
"0.13","13","-0.005","-0.002","0.006","0.4583664","-0.1145916","0.1145916"
"0.13","13","0.031","0.042","0.022","-3.0366774","-1.2605076","-4.6982556"
"0.13","13","0.004","0.001","0.003","-2.1199445999999997","2.86479","-0.0572958"
"0.14","14","0.069","-0.016","-0.025","13.1207382","-9.2246238","0.4010706"
"0.14","14","-0.057","0.177","-0.046","9.6829902","-4.068001799999999","-1.5469865999999999"
"0.14","14","0.002","0.03","-0.001","1.4896908","-1.3750992","-0.0572958"
"0.14","14","-0.01","0.0","-0.002","0.4010706","0.286479","0.1718874"
"0.14","14","0.035","0.043","0.022","-3.437748","-0.9167328","-4.1252976"
"0.14","14","0.001","-0.012","-0.002","-1.432395","2.5210152","0.0"
"0.15","15","0.073","-0.008","0.007","12.891555","-8.9954406","0.6875496"
"0.15","15","-0.066","0.186","-0.029","11.45916","-3.2085648","-0.8021412"
"0.15","15","0.002","0.033","-0.005","1.3750992","-1.4896908","0.0572958"
"0.15","15","-0.011","0.004","-0.008","0.5156622","0.4010706","0.0"
"0.15","15","0.033","0.04","0.0","-3.7815228000000003","-0.5156622","-2.9793816"
"0.15","15","0.009","-0.02","-0.007","-0.9740286","2.578311","0.2291832"
"0.16","16","0.079","-0.006","0.018","9.912173399999999","-8.193299399999999","0.859437"
"0.16","16","-0.071","0.184","-0.026","11.172681","-2.5210152","0.286479"
"0.16","16","0.003","0.037","-0.001","1.2605076","-2.2345362","0.2291832"
"0.16","16","-0.012","0.003","-0.002","0.3437748","-0.2291832","-0.0572958"
"0.16","16","0.025","0.039","-0.007","-3.8961144","-0.0572958","-1.5469865999999999"
"0.16","16","0.013","-0.022","-0.006","-0.5156622","2.0626488","0.1145916"
"0.17","17","0.09","-0.011","0.017","6.0733548","-7.0473834","1.2032118"
"0.17","17","-0.061","0.184","-0.04","7.2192708","-1.8907614000000001","0.859437"
"0.17","17","0.011","0.039","0.004","1.4896908","-2.7501984","0.286479"
"0.17","17","-0.003","0.011","0.0","0.1718874","-1.432395","-0.0572958"
"0.17","17","0.022","0.038","-0.004","-3.7815228000000003","0.2291832","-0.2291832"
"0.17","17","0.004","-0.012","0.0","0.0572958","1.2605076","0.1718874"
"0.18","18","0.095","-0.019","0.012","3.0366774","-5.5003968","1.6615782000000001"
"0.18","18","-0.049","0.187","-0.048","2.0626488","-2.1199445999999997","-0.0572958"
"0.18","18","0.014","0.034","0.0","0.6875496","-2.6929026","0.5156622"
"0.18","18","0.005","0.021","0.001","0.1145916","-1.6042824","0.0"
"0.18","18","0.025","0.037","0.0","-3.5523396","0.4583664","0.6302538"
"0.18","18","-0.005","-0.006","0.005","0.1145916","1.3178034","0.286479"
"0.19","19","0.087","-0.026","0.003","1.6615782000000001","-4.3544808","1.8907614000000001"
"0.19","19","-0.043","0.19","-0.032","-3.2658606","-2.291832","-0.9740286"
"0.19","19","0.016","0.027","-0.004","0.4583664","-2.578311","0.6302538"
"0.19","19","0.008","0.027","0.003","0.3437748","-1.5469865999999999","-0.0572958"
"0.19","19","0.031","0.035","0.006","-3.437748","0.5156622","1.2605076"
"0.19","19","-0.01","-0.008","0.007","0.0","1.2605076","0.6875496"
"0.2","20","0.072","-0.028","-0.005","2.5210152","-2.9220857999999996","2.5210152"
"0.2","20","-0.056","0.187","-0.021","-5.9587632","-2.4064236","-0.9167328"
"0.2","20","0.018","0.02","0.0","0.1145916","-1.7761698","0.572958"
"0.2","20","0.013","0.023","0.005","0.286479","-1.3178034","-0.0572958"
"0.2","20","0.038","0.034","0.006","-3.3231564000000002","0.6302538","1.7761698"
"0.2","20","-0.013","-0.013","0.005","0.4010706","0.9167328","1.145916"
"0.21","21","0.062","-0.026","0.002","4.4117766","-1.6042824","2.9793816"
"0.21","21","-0.068","0.189","-0.034","-5.9014674","-2.0626488","-0.1718874"
"0.21","21","0.017","0.013","0.0","0.0","-1.145916","0.2291832"
"0.21","21","0.014","0.026","0.001","0.3437748","-0.859437","0.0"
"0.21","21","0.044","0.033","0.002","-3.2658606","0.859437","2.3491278"
"0.21","21","-0.016","-0.017","0.003","0.8021412","0.4583664","1.0313244"
"0.22","22","0.059","-0.018","0.027","4.8701430000000006","0.0","3.0939731999999998"
"0.22","22","-0.072","0.188","-0.059","-2.6356068","-1.3750992","0.7448454"
"0.22","22","0.014","0.013","-0.001","-0.1145916","-0.859437","0.0572958"
"0.22","22","0.012","0.02","0.003","0.7448454","-0.4583664","0.1145916"
"0.22","22","0.045","0.033","-0.003","-3.0939731999999998","1.2032118","3.0366774"
"0.22","22","-0.016","-0.019","0.0","1.0313244","-0.1718874","0.7448454"
"0.23","23","0.054","-0.01","0.058","3.4950438","1.5469865999999999","2.7501984"
"0.23","23","-0.074","0.183","-0.083","1.432395","-0.5156622","1.432395"
"0.23","23","0.013","0.012","-0.004","-0.1718874","-0.572958","0.1145916"
"0.23","23","0.008","0.017","0.006","0.6302538","0.0","0.2291832"
"0.23","23","0.042","0.034","-0.01","-2.9220857999999996","1.5469865999999999","3.6669312"
"0.23","23","-0.012","-0.016","-0.003","1.0313244","-0.572958","0.3437748"
"0.24","24","0.06","-0.001","0.073","-0.6302538","4.068001799999999","2.0626488"
"0.24","24","-0.075","0.173","-0.086","4.297185","0.3437748","1.6042824"
"0.24","24","0.016","0.011","-0.006","-0.572958","0.0572958","-0.1145916"
"0.24","24","0.003","0.017","0.003","0.3437748","-0.1145916","0.0572958"
"0.24","24","0.04","0.034","-0.01","-2.5210152","1.9480572","4.2398891999999995"
"0.24","24","-0.009","-0.01","-0.007","1.3178034","-1.2032118","0.0572958"
"0.25","25","0.074","-0.001","0.068","-4.297185","6.016058999999999","1.5469865999999999"
"0.25","25","-0.069","0.174","-0.058","4.7555514","1.6042824","2.0053530000000004"
"0.25","25","0.018","0.01","-0.002","-0.6302538","0.4010706","0.0"
"0.25","25","0.002","0.021","-0.003","0.0","-0.3437748","-0.0572958"
"0.25","25","0.04","0.035","0.0","-2.0053530000000004","2.2345362","4.5263682"
"0.25","25","-0.005","-0.007","-0.004","1.8907614000000001","-1.0886202","0.1145916"
"0.26","26","0.078","0.0","0.055","-6.302538","7.6776372","0.859437"
"0.26","26","-0.055","0.173","-0.04","1.432395","2.1772404","2.4064236"
"0.26","26","0.021","0.01","0.001","-1.0886202","0.286479","0.0572958"
"0.26","26","0.005","0.024","-0.006","0.1145916","-0.6302538","-0.1718874"
"0.26","26","0.046","0.037","0.009","-1.6615782000000001","2.4637194","4.4690724"
"0.26","26","-0.007","-0.01","0.006","2.4637194","-1.3750992","0.286479"
"0.27","27","0.072","0.004","0.033","-6.0733548","8.8235532","-0.0572958"
"0.27","27","-0.047","0.168","-0.026","-4.1252976","2.2345362","2.2345362"
"0.27","27","0.02","0.013","0.005","-1.0313244","0.0572958","0.1145916"
"0.27","27","0.008","0.027","-0.004","0.0572958","-0.9167328","-0.2291832"
"0.27","27","0.042","0.036","0.009","-1.432395","2.578311","4.2398891999999995"
"0.27","27","-0.01","-0.011","0.012","2.4064236","-1.8334656","0.5156622"
"0.28","28","0.059","0.003","0.007","-3.3231564000000002","8.9381448","-0.5156622"
"0.28","28","-0.058","0.165","-0.035","-11.516455800000001","2.1199445999999997","2.6356068"
"0.28","28","0.021","0.016","0.003","-0.7448454","-0.0572958","0.0572958"
"0.28","28","0.014","0.025","0.002","0.3437748","-1.0313244","-0.1718874"
"0.28","28","0.034","0.037","0.01","-1.2032118","2.578311","3.8388186"
"0.28","28","-0.005","-0.007","0.015","1.9480572","-2.0053530000000004","0.8021412"
"0.29","29","0.049","0.004","-0.007","1.6615782000000001","8.3651868","-0.4010706"
"0.29","29","-0.071","0.162","-0.065","-15.6417534","2.578311","3.2085648"
"0.29","29","0.023","0.019","0.0","-0.4583664","0.0572958","0.1145916"
"0.29","29","0.014","0.018","0.006","0.4010706","-0.4010706","-0.1718874"
"0.29","29","0.04","0.036","0.01","-1.145916","2.3491278","3.151269"
"0.29","29","0.001","-0.003","0.012","1.145916","-2.1199445999999997","0.7448454"
"0.3","30","0.05","0.012","0.003","6.760904399999999","6.875496","0.0"
"0.3","30","-0.079","0.149","-0.099","-15.756345000000001","3.151269","3.3231564000000002"
"0.3","30","0.021","0.021","-0.001","-0.1145916","0.572958","-0.1718874"
"0.3","30","0.01","0.012","0.007","0.0572958","0.1145916","-0.1718874"
"0.3","30","0.044","0.037","0.006","-1.0886202","2.0626488","2.291832"
"0.3","30","0.007","-0.001","0.008","0.9167328","-2.0626488","0.5156622"
"0.31","31","0.054","0.028","0.028","7.6776372","5.156622","-0.1718874"
"0.31","31","-0.084","0.141","-0.112","-11.688343199999998","3.3804521999999997","3.6669312"
"0.31","31","0.017","0.02","-0.002","0.0","1.145916","-0.4583664"
"0.31","31","0.009","0.006","0.001","-0.1718874","1.432395","-0.1718874"
"0.31","31","0.043","0.037","0.0","-1.0313244","1.8334656","1.4896908"
"0.31","31","0.009","-0.002","0.005","0.4010706","-1.6042824","0.286479"
"0.32","32","0.057","0.039","0.051","4.3544808","3.2658606","-1.0313244"
"0.32","32","-0.078","0.139","-0.119","-6.3598338","3.3231564000000002","4.297185"
"0.32","32","0.009","0.016","-0.003","0.0","1.2605076","-0.572958"
"0.32","32","0.002","-0.001","-0.001","-0.286479","1.2605076","-0.1718874"
"0.32","32","0.039","0.038","-0.003","-0.859437","1.6615782000000001","0.8021412"
"0.32","32","0.008","-0.004","0.0","0.2291832","-1.6615782000000001","0.4010706"
"0.33","33","0.065","0.042","0.049","-1.5469865999999999","1.432395","-2.6929026"
"0.33","33","-0.065","0.136","-0.134","-1.3750992","2.6929026","4.297185"
"0.33","33","0.006","0.012","0.0","-0.1145916","1.0886202","-0.7448454"
"0.33","33","0.0","-0.004","-0.004","0.0572958","0.3437748","0.0"
"0.33","33","0.038","0.036","-0.003","-0.6302538","1.432395","0.1145916"
"0.33","33","0.011","-0.005","-0.003","0.2291832","-1.3750992","0.6302538"
"0.34","34","0.065","0.037","0.024","-5.0993262","0.2291832","-3.6669312"
"0.34","34","-0.052","0.136","-0.139","3.8388186","1.6042824","3.4950438"
"0.34","34","0.006","0.009","0.001","-0.1718874","0.8021412","-0.7448454"
"0.34","34","0.001","-0.003","-0.005","0.4583664","0.1718874","0.0"
"0.34","34","0.033","0.034","-0.004","-0.3437748","1.2605076","-0.3437748"
"0.34","34","0.012","-0.007","-0.006","0.0572958","-0.7448454","0.9740286"
"0.35000000000000003","35","0.062","0.031","-0.004","-5.786875800000001","-0.572958","-4.2398891999999995"
"0.35000000000000003","35","-0.047","0.142","-0.131","6.5317212","0.4010706","2.5210152"
"0.35000000000000003","35","0.004","0.007","0.0","-0.286479","0.5156622","-0.572958"
"0.35000000000000003","35","0.003","-0.006","-0.006","0.4583664","0.7448454","0.0"
"0.35000000000000003","35","0.029","0.032","-0.003","-0.1145916","1.0313244","-0.6875496"
"0.35000000000000003","35","0.01","-0.011","-0.005","0.286479","-0.572958","1.3750992"
"0.36","36","0.065","0.026","-0.036","-2.6929026","-1.0886202","-4.1252976"
"0.36","36","-0.052","0.151","-0.107","7.2765666","-0.6302538","1.3178034"
"0.36","36","0.004","0.008","0.0","-0.2291832","0.572958","-0.5156622"
"0.36","36","0.005","-0.002","-0.004","0.5156622","1.0313244","0.0"
"0.36","36","0.028","0.031","0.004","0.1145916","0.8021412","-0.9740286"
"0.36","36","0.007","-0.014","-0.001","0.8021412","-0.6302538","1.3750992"
"0.37","37","0.065","0.022","-0.048","2.0053530000000004","-1.6042824","-3.6096354"
"0.37","37","-0.056","0.155","-0.098","5.2139178","-1.5469865999999999","0.1145916"
"0.37","37","0.005","0.012","0.0","-0.0572958","0.6302538","-0.3437748"
"0.37","37","0.001","0.008","-0.004","0.3437748","1.2032118","-0.0572958"
"0.37","37","0.026","0.03","0.01","0.2291832","0.5156622","-1.145916"
"0.37","37","0.002","-0.012","0.003","0.6875496","-0.286479","1.0886202"
"0.38","38","0.062","0.022","-0.043","6.4171296","-2.0626488","-2.8074942000000003"
"0.38","38","-0.059","0.156","-0.098","1.8907614000000001","-2.2345362","-0.859437"
"0.38","38","0.003","0.016","0.001","0.0572958","0.6875496","-0.3437748"
"0.38","38","-0.002","0.017","-0.002","0.0572958","0.9167328","-0.1718874"
"0.38","38","0.026","0.029","0.012","0.1718874","0.2291832","-1.2605076"
"0.38","38","0.0","-0.009","0.008","0.4010706","-0.6875496","0.7448454"
"0.39","39","0.066","0.034","-0.023","8.136003599999999","-2.5210152","-2.0626488"
"0.39","39","-0.061","0.156","-0.1","-1.8907614000000001","-2.4637194","-1.432395"
"0.39","39","0.002","0.019","0.0","0.0572958","0.5156622","-0.2291832"
"0.39","39","0.0","0.026","0.0","0.1718874","0.6302538","-0.1145916"
"0.39","39","0.025","0.029","0.014","0.0572958","0.0","-1.2605076"
"0.39","39","-0.001","-0.006","0.01","0.2291832","-1.432395","0.6875496"
"0.4","40","0.07","0.04","0.0","6.0733548","-2.8074942000000003","-1.4896908"
"0.4","40","-0.063","0.156","-0.107","-3.3804521999999997","-2.578311","-1.6615782000000001"
"0.4","40","0.001","0.019","0.001","0.1145916","0.1145916","-0.286479"
"0.4","40","0.006","0.033","0.002","0.286479","0.1145916","-0.1145916"
"0.4","40","0.023","0.028","0.006","-0.1145916","-0.1718874","-1.2032118"
"0.4","40","0.0","-0.008","0.01","-0.0572958","-1.3750992","0.6875496"
"0.41000000000000003","41","0.075","0.04","0.008","1.718874","-2.9220857999999996","-1.3750992"
"0.41000000000000003","41","-0.062","0.154","-0.114","-2.9793816","-2.4064236","-1.5469865999999999"
"0.41000000000000003","41","0.004","0.019","0.002","0.0572958","0.1145916","-0.1718874"
"0.41000000000000003","41","0.008","0.03","0.004","0.3437748","0.3437748","-0.1718874"
"0.41000000000000003","41","0.022","0.028","0.003","-0.3437748","-0.4010706","-1.0886202"
"0.41000000000000003","41","0.005","-0.012","0.007","0.0572958","-1.5469865999999999","0.7448454"
"0.42","42","0.075","0.031","0.002","-3.8961144","-2.86479","-1.3178034"
"0.42","42","-0.052","0.151","-0.131","0.0","-2.1199445999999997","-1.7761698"
"0.42","42","0.006","0.021","-0.001","0.286479","0.1718874","-0.1145916"
"0.42","42","0.007","0.025","0.004","0.3437748","0.4583664","-0.1145916"
"0.42","42","0.022","0.028","0.002","-0.4583664","-0.572958","-0.9740286"
"0.42","42","0.008","-0.014","0.004","0.0","-1.0313244","0.7448454"
"0.43","43","0.071","0.023","-0.017","-6.9900876","-2.6929026","-1.2605076"
"0.43","43","-0.037","0.152","-0.135","3.0366774","-2.1772404","-2.9220857999999996"
"0.43","43","0.006","0.02","-0.002","0.2291832","0.7448454","-0.1145916"
"0.43","43","0.003","0.012","0.001","0.1145916","0.6875496","0.0"
"0.43","43","0.024","0.029","-0.001","-0.572958","-0.6875496","-0.859437"
"0.43","43","0.011","-0.014","0.0","-0.4010706","-0.3437748","0.6875496"
"0.44","44","0.065","0.019","-0.034","-7.3911582000000005","-2.4064236","-0.6302538"
"0.44","44","-0.037","0.162","-0.103","5.5576926","-2.2345362","-3.7815228000000003"
"0.44","44","0.006","0.018","-0.002","0.0572958","1.0886202","-0.1718874"
"0.44","44","0.003","0.0","0.0","0.1718874","1.0886202","0.1145916"
"0.44","44","0.027","0.028","-0.001","-0.572958","-0.6875496","-0.6875496"
"0.44","44","0.008","-0.011","-0.003","-0.572958","0.0572958","0.572958"
"0.45","45","0.066","0.009","-0.043","-4.583664","-1.6042824","-0.286479"
"0.45","45","-0.053","0.167","-0.074","5.5003968","-2.291832","-3.9534102000000004"
"0.45","45","0.006","0.016","0.0","0.0572958","1.3178034","-0.286479"
"0.45","45","-0.004","-0.007","0.0","0.5156622","0.859437","0.0"
"0.45","45","0.029","0.027","-0.001","-0.4583664","-0.572958","-0.4583664"
"0.45","45","0.003","-0.007","-0.004","-0.5156622","0.3437748","0.5156622"
"0.46","46","0.071","0.005","-0.049","-0.9167328","-1.0313244","-0.2291832"
"0.46","46","-0.059","0.169","-0.072","3.2658606","-2.1199445999999997","-3.6096354"
"0.46","46","0.005","0.014","0.0","0.0572958","1.145916","-0.3437748"
"0.46","46","-0.008","-0.005","-0.003","0.4583664","0.572958","-0.0572958"
"0.46","46","0.031","0.026","0.0","-0.3437748","-0.286479","-0.0572958"
"0.46","46","0.002","-0.005","-0.004","-0.6302538","0.6302538","0.3437748"
"0.47000000000000003","47","0.07","0.007","-0.051","2.6929026","-0.4010706","-0.0572958"
"0.47000000000000003","47","-0.057","0.165","-0.079","1.0886202","-1.8907614000000001","-3.6669312"
"0.47000000000000003","47","0.007","0.013","0.0","0.0","0.9167328","-0.3437748"
"0.47000000000000003","47","-0.009","-0.002","-0.003","0.286479","0.3437748","-0.3437748"
"0.47000000000000003","47","0.03","0.024","0.004","-0.286479","0.0","0.4010706"
"0.47000000000000003","47","0.004","-0.012","-0.002","-0.6302538","0.0","0.2291832"
"0.48","48","0.065","0.009","-0.039","4.7555514","-0.0572958","0.572958"
"0.48","48","-0.058","0.163","-0.075","-0.4010706","-1.718874","-3.724227"
"0.48","48","0.011","0.013","0.001","0.2291832","0.572958","-0.286479"
"0.48","48","-0.004","-0.001","-0.002","0.0572958","-0.286479","-0.4010706"
"0.48","48","0.03","0.024","0.006","-0.2291832","0.3437748","0.9167328"
"0.48","48","-0.001","-0.013","-0.001","-0.2291832","-0.1718874","0.1145916"
"0.49","49","0.063","0.014","-0.015","4.297185","0.4010706","1.3178034"
"0.49","49","-0.058","0.161","-0.071","-1.4896908","-1.4896908","-3.5523396"
"0.49","49","0.012","0.014","0.001","0.1718874","0.4010706","-0.1718874"
"0.49","49","0.0","0.006","0.0","0.286479","-1.0313244","-0.286479"
"0.49","49","0.027","0.024","0.004","-0.286479","0.6302538","1.2605076"
"0.49","49","-0.004","-0.006","0.002","0.0572958","0.0","0.2291832"
"0.5","50","0.065","0.02","0.005","1.7761698","0.286479","1.6042824"
"0.5","50","-0.055","0.152","-0.064","-2.3491278","-1.6042824","-3.4950438"
"0.5","50","0.009","0.013","0.0","0.2291832","0.4583664","-0.1718874"
"0.5","50","0.001","0.008","0.002","0.572958","-1.0313244","-0.2291832"
"0.5","50","0.023","0.024","0.005","-0.2291832","0.9740286","1.432395"
"0.5","50","0.01","0.001","0.009","-0.4583664","-0.1145916","0.1718874"
"0.51","51","0.073","0.019","0.008","-2.3491278","0.0","1.6615782000000001"
"0.51","51","-0.044","0.151","-0.066","-2.1199445999999997","-1.718874","-3.3804521999999997"
"0.51","51","0.006","0.014","0.0","0.1145916","0.6875496","-0.286479"
"0.51","51","0.0","0.01","0.002","0.4583664","-0.6875496","-0.1145916"
"0.51","51","0.025","0.026","0.005","-0.2291832","1.0886202","1.432395"
"0.51","51","0.007","-0.006","0.008","-1.145916","-0.3437748","0.1145916"
"0.52","52","0.071","0.011","-0.006","-5.6149884000000005","-0.286479","1.8907614000000001"
"0.52","52","-0.044","0.155","-0.066","-1.2605076","-2.0626488","-4.2398891999999995"
"0.52","52","0.002","0.016","0.001","0.2291832","0.6875496","-0.3437748"
"0.52","52","0.003","0.012","0.003","0.286479","-0.286479","-0.0572958"
"0.52","52","0.034","0.023","-0.015","-0.286479","1.2032118","1.4896908"
"0.52","52","0.004","-0.001","0.007","-1.145916","-0.4583664","0.1718874"
"0.53","53","0.066","0.004","-0.02","-6.016058999999999","-0.286479","2.1772404"
"0.53","53","-0.058","0.156","-0.051","-0.0572958","-2.4064236","-4.297185"
"0.53","53","-0.001","0.017","0.0","0.4010706","0.4010706","-0.286479"
"0.53","53","0.002","0.011","0.002","0.0572958","0.0","-0.1718874"
"0.53","53","0.027","0.023","0.003","0.0","1.3750992","1.8334656"
"0.53","53","0.0","0.006","0.005","-1.8334656","-0.572958","0.0"
"0.54","54","0.062","-0.002","-0.028","-4.3544808","-0.1718874","2.4064236"
"0.54","54","-0.063","0.157","-0.042","0.6302538","-2.291832","-3.8961144"
"0.54","54","-0.003","0.015","-0.004","0.4010706","0.1145916","-0.286479"
"0.54","54","0.0","0.01","-0.004","0.286479","0.4010706","-0.1145916"
"0.54","54","0.028","0.025","0.021","0.1718874","1.4896908","2.1199445999999997"
"0.54","54","0.0","-0.002","0.0","-2.0053530000000004","-0.3437748","0.0"
"0.55","55","0.054","-0.004","-0.03","-0.4010706","0.286479","2.4064236"
"0.55","55","-0.06","0.153","-0.051","1.0886202","-1.718874","-3.5523396"
"0.55","55","-0.002","0.013","-0.002","0.4010706","-0.1145916","-0.2291832"
"0.55","55","0.006","0.019","-0.004","0.4583664","0.6875496","-0.1718874"
"0.55","55","0.027","0.023","0.005","0.1145916","1.4896908","2.4064236"
"0.55","55","0.006","-0.011","-0.005","-1.4896908","0.0","0.0"
"0.56","56","0.054","-0.002","-0.026","2.5210152","0.5156622","2.5210152"
"0.56","56","-0.062","0.154","-0.062","2.1772404","-1.145916","-2.8074942000000003"
"0.56","56","-0.001","0.012","0.002","0.4010706","-0.3437748","-0.0572958"
"0.56","56","0.005","0.013","0.0","0.1145916","0.6875496","-0.2291832"
"0.56","56","0.022","0.023","0.001","0.0572958","1.4896908","2.5210152"
"0.56","56","0.006","-0.014","-0.002","-0.9167328","0.0","-0.286479"
"0.5700000000000001","57","0.06","0.002","0.0","3.8961144","0.9740286","3.0366774"
"0.5700000000000001","57","-0.065","0.153","-0.064","2.578311","-0.9740286","-2.3491278"
"0.5700000000000001","57","0.001","0.012","0.001","0.572958","-0.6875496","0.0"
"0.5700000000000001","57","0.003","0.005","0.0","0.286479","0.1718874","-0.1718874"
"0.5700000000000001","57","0.023","0.022","0.0","0.0572958","1.3750992","2.5210152"
"0.5700000000000001","57","0.002","-0.002","0.0","-0.5156622","-0.1718874","-0.286479"
"0.58","58","0.068","0.008","0.029","1.8907614000000001","1.3178034","2.6929026"
"0.58","58","-0.061","0.149","-0.064","0.8021412","-0.9167328","-2.4064236"
"0.58","58","0.002","0.012","0.0","0.6302538","-0.8021412","0.0572958"
"0.58","58","0.009","0.004","0.002","0.859437","0.2291832","0.1145916"
"0.58","58","0.023","0.019","0.0","0.0","1.145916","2.3491278"
"0.58","58","0.0","0.005","0.003","-0.3437748","0.0","-0.1145916"
"0.59","59","0.067","0.011","0.032","-1.8907614000000001","1.3178034","2.1772404"
"0.59","59","-0.054","0.148","-0.058","-1.3750992","-1.2605076","-2.8074942000000003"
"0.59","59","0.005","0.011","-0.001","0.9167328","-0.8021412","0.0572958"
"0.59","59","0.009","0.005","0.003","0.9167328","0.6302538","0.3437748"
"0.59","59","0.021","0.02","0.002","-0.0572958","0.859437","2.0626488"
"0.59","59","0.0","0.001","0.004","-0.5156622","-0.1718874","0.1145916"
"0.6","60","0.062","0.009","0.022","-4.6982556","0.9740286","2.1199445999999997"
"0.6","60","-0.052","0.147","-0.046","-2.3491278","-1.3750992","-3.0939731999999998"
"0.6","60","0.007","0.01","0.0","0.6875496","-0.6302538","0.0"
"0.6","60","-0.001","0.0","0.003","0.5156622","0.8021412","0.2291832"
"0.6","60","0.022","0.019","0.004","-0.1145916","0.4583664","1.6042824"
"0.6","60","0.0","-0.004","0.001","-0.2291832","-0.572958","0.3437748"
"0.61","61","0.06","0.004","0.016","-5.5576926","0.572958","2.0053530000000004"
"0.61","61","-0.059","0.149","-0.03","-1.8334656","-1.718874","-3.0366774"
"0.61","61","0.009","0.009","0.0","0.7448454","-0.286479","0.1145916"
"0.61","61","-0.008","-0.002","-0.001","0.4583664","0.3437748","0.2291832"
"0.61","61","0.024","0.019","0.001","-0.1718874","0.0","1.0886202"
"0.61","61","-0.001","-0.007","0.0","-0.1145916","-0.5156622","0.286479"
"0.62","62","0.056","-0.001","0.007","-4.5263682","0.4583664","1.718874"
"0.62","62","-0.064","0.15","-0.026","-0.859437","-1.4896908","-2.3491278"
"0.62","62","0.012","0.011","0.001","0.8021412","-0.0572958","0.0"
"0.62","62","-0.012","0.0","-0.003","0.5156622","0.0572958","0.0572958"
"0.62","62","0.027","0.02","0.0","-0.2291832","-0.286479","0.6302538"
"0.62","62","0.0","-0.008","-0.002","-0.6302538","-0.1145916","0.1145916"
"0.63","63","0.052","-0.007","-0.005","-2.2345362","0.3437748","1.6042824"
"0.63","63","-0.062","0.149","-0.037","-0.1718874","-1.2032118","-1.6615782000000001"
"0.63","63","0.014","0.012","0.0","0.7448454","0.3437748","0.0"
"0.63","63","-0.01","0.007","0.0","0.4010706","-0.0572958","-0.1145916"
"0.63","63","0.031","0.021","-0.002","-0.2291832","-0.5156622","0.286479"
"0.63","63","-0.001","-0.007","0.0","-0.6875496","-0.1718874","-0.0572958"
"0.64","64","0.052","-0.012","-0.007","1.2032118","0.1145916","1.432395"
"0.64","64","-0.067","0.147","-0.046","0.2291832","-1.0313244","-1.0313244"
"0.64","64","0.013","0.013","-0.003","0.572958","0.6302538","0.0"
"0.64","64","0.0","0.015","0.0","0.0572958","-0.4583664","-0.1145916"
"0.64","64","0.03","0.021","-0.004","-0.1145916","-0.6875496","0.0572958"
"0.64","64","-0.002","-0.005","0.0","-0.6875496","0.0572958","-0.1145916"
"0.65","65","0.049","-0.011","0.009","3.4950438","0.0","1.5469865999999999"
"0.65","65","-0.071","0.145","-0.052","0.286479","-0.6875496","-0.286479"
"0.65","65","0.011","0.015","-0.003","0.4010706","0.859437","-0.0572958"
"0.65","65","0.003","0.017","0.0","0.1145916","-0.572958","-0.286479"
"0.65","65","0.026","0.022","-0.005","0.0572958","-0.7448454","-0.0572958"
"0.65","65","0.001","-0.004","0.0","-0.6875496","0.4583664","-0.0572958"
"0.66","66","0.052","-0.001","0.037","3.0366774","0.2291832","1.2032118"
"0.66","66","-0.067","0.141","-0.064","0.4583664","-0.4010706","0.4010706"
"0.66","66","0.007","0.018","-0.001","0.4010706","0.859437","-0.1145916"
"0.66","66","0.005","0.02","0.0","0.286479","-0.572958","-0.1145916"
"0.66","66","0.023","0.021","-0.003","0.3437748","-0.7448454","-0.3437748"
"0.66","66","0.005","-0.002","0.0","-0.6875496","0.286479","0.0"
"0.67","67","0.066","0.004","0.056","-0.859437","0.4010706","0.0"
"0.67","67","-0.061","0.133","-0.073","1.7761698","-0.1718874","0.4010706"
"0.67","67","0.004","0.016","0.002","0.1718874","0.8021412","0.0"
"0.67","67","0.008","0.021","0.001","0.3437748","-0.3437748","0.0"
"0.67","67","0.02","0.021","-0.002","0.572958","-0.8021412","-0.7448454"
"0.67","67","0.004","-0.003","0.0","-0.572958","0.4010706","0.1145916"
"0.68","68","0.064","0.0","0.042","-4.1252976","0.6875496","-0.7448454"
"0.68","68","-0.056","0.129","-0.058","2.86479","-0.2291832","0.286479"
"0.68","68","0.003","0.014","0.002","0.0","0.9167328","-0.1718874"
"0.68","68","0.007","0.019","0.003","0.286479","0.0","0.0"
"0.68","68","0.018","0.019","-0.001","0.859437","-0.9167328","-1.145916"
"0.68","68","0.001","-0.002","0.0","-0.4583664","0.6302538","0.3437748"
"0.6900000000000001","69","0.061","-0.004","0.024","-5.5003968","0.859437","-1.145916"
"0.6900000000000001","69","-0.049","0.134","-0.035","2.86479","-0.4583664","0.4583664"
"0.6900000000000001","69","0.002","0.012","0.0","0.0","1.0313244","-0.1718874"
"0.6900000000000001","69","0.005","0.014","0.001","0.286479","0.1718874","0.0"
"0.6900000000000001","69","0.017","0.019","0.006","1.0313244","-1.0313244","-1.6042824"
"0.6900000000000001","69","0.0","-0.002","0.0","-0.4583664","0.5156622","0.2291832"
"0.7000000000000001","70","0.058","-0.007","0.0","-4.3544808","1.2032118","-1.432395"
"0.7000000000000001","70","-0.042","0.132","-0.032","0.9167328","-0.9740286","0.5156622"
"0.7000000000000001","70","0.0","0.012","0.0","0.0","0.9167328","-0.2291832"
"0.7000000000000001","70","0.003","0.01","0.0","0.4010706","0.572958","0.0572958"
"0.7000000000000001","70","0.019","0.018","0.01","1.0886202","-1.145916","-1.8907614000000001"
"0.7000000000000001","70","-0.004","-0.005","0.0","-0.4583664","0.4010706","0.286479"
"0.71","71","0.052","-0.01","-0.02","-1.432395","1.2032118","-1.3750992"
"0.71","71","-0.048","0.132","-0.039","-0.1718874","-1.3178034","0.572958"
"0.71","71","0.001","0.013","-0.001","0.0","0.9167328","-0.3437748"
"0.71","71","0.002","0.007","0.0","0.286479","0.9740286","0.0572958"
"0.71","71","0.02","0.017","0.008","1.0313244","-1.3178034","-2.0626488"
"0.71","71","-0.006","-0.005","0.001","-0.4583664","0.2291832","0.1718874"
"0.72","72","0.046","-0.011","-0.028","2.291832","1.6042824","-0.7448454"
"0.72","72","-0.058","0.138","-0.061","-0.4010706","-1.3178034","0.9740286"
"0.72","72","0.004","0.016","0.0","0.286479","0.4583664","-0.1145916"
"0.72","72","0.003","0.005","0.002","0.1145916","1.0313244","0.0572958"
"0.72","72","0.019","0.018","0.003","0.859437","-1.3750992","-2.0626488"
"0.72","72","-0.003","-0.004","0.002","-0.4583664","0.4010706","0.0572958"
"0.73","73","0.048","-0.001","-0.004","4.583664","1.5469865999999999","-0.1145916"
"0.73","73","-0.064","0.135","-0.077","-0.1718874","-1.2032118","0.7448454"
"0.73","73","0.006","0.015","0.0","0.5156622","0.0572958","0.0"
"0.73","73","0.004","0.004","0.0","0.0","0.8021412","0.0"
"0.73","73","0.016","0.019","0.001","0.7448454","-1.3750992","-2.0626488"
"0.73","73","0.0","0.0","0.004","-0.2291832","0.0","-0.1145916"
"0.74","74","0.06","0.01","0.024","3.4950438","2.0053530000000004","0.0572958"
"0.74","74","-0.066","0.133","-0.078","0.4010706","-1.0886202","0.7448454"
"0.74","74","0.008","0.015","0.0","0.6302538","-0.286479","0.1718874"
"0.74","74","0.003","0.005","0.0","-0.1718874","0.6875496","0.0"
"0.74","74","0.015","0.018","0.0","0.6302538","-1.432395","-2.1199445999999997"
"0.74","74","0.006","-0.002","0.005","-0.1718874","0.2291832","-0.4583664"
"0.75","75","0.072","0.014","0.036","-0.2291832","2.2345362","-0.286479"
"0.75","75","-0.062","0.13","-0.075","0.6875496","-0.859437","0.8021412"
"0.75","75","0.006","0.015","0.0","0.8021412","-0.4010706","0.2291832"
"0.75","75","-0.001","0.0","0.001","0.1718874","0.6875496","0.1145916"
"0.75","75","0.014","0.019","0.002","0.572958","-1.4896908","-2.1772404"
"0.75","75","0.009","-0.006","0.003","0.1145916","0.5156622","-0.6302538"
"0.76","76","0.077","0.009","0.021","-4.583664","2.7501984","-0.859437"
"0.76","76","-0.056","0.124","-0.068","1.3178034","-0.8021412","0.572958"
"0.76","76","0.005","0.016","0.0","0.859437","-0.1718874","0.1718874"
"0.76","76","-0.003","0.0","0.0","0.4583664","0.572958","0.1718874"
"0.76","76","0.015","0.019","0.002","0.4583664","-1.4896908","-2.1772404"
"0.76","76","0.005","-0.006","0.0","0.1718874","0.6875496","-0.6875496"
"0.77","77","0.068","0.004","-0.007","-6.0733548","2.9220857999999996","-0.9167328"
"0.77","77","-0.049","0.121","-0.064","2.578311","-0.859437","0.859437"
"0.77","77","0.006","0.014","0.0","0.6875496","0.2291832","0.1145916"
"0.77","77","-0.006","-0.001","0.0","0.286479","0.4010706","0.0572958"
"0.77","77","0.014","0.02","0.003","0.4010706","-1.4896908","-2.1772404"
"0.77","77","0.004","-0.004","-0.005","0.286479","0.859437","-0.4010706"
"0.78","78","0.058","-0.002","-0.029","-4.4690724","3.151269","-0.9167328"
"0.78","78","-0.036","0.121","-0.073","3.3804521999999997","-0.9740286","0.5156622"
"0.78","78","0.006","0.014","0.0","0.6302538","0.6875496","-0.0572958"
"0.78","78","-0.007","0.0","0.0","0.0","0.572958","0.0572958"
"0.78","78","0.015","0.018","0.006","0.286479","-1.432395","-2.0626488"
"0.78","78","0.001","-0.002","-0.008","0.4010706","1.0886202","-0.1145916"
"0.79","79","0.048","-0.006","-0.045","-0.9740286","3.0939731999999998","-0.4583664"
"0.79","79","-0.032","0.119","-0.073","3.2658606","-1.2605076","0.1145916"
"0.79","79","0.004","0.014","0.0","0.4583664","0.859437","-0.0572958"
"0.79","79","-0.009","0.0","-0.001","0.0","0.0","-0.1718874"
"0.79","79","0.018","0.019","0.009","0.1718874","-1.3178034","-1.8334656"
"0.79","79","-0.002","-0.001","-0.007","0.7448454","0.6302538","0.0572958"
"0.8","80","0.045","-0.005","-0.045","3.8961144","3.0939731999999998","0.0572958"
"0.8","80","-0.041","0.118","-0.064","2.0626488","-1.4896908","-0.1718874"
"0.8","80","0.002","0.015","0.0","0.1718874","0.8021412","-0.1718874"
"0.8","80","-0.004","0.005","0.0","0.0","-0.572958","-0.1718874"
"0.8","80","0.017","0.017","0.005","0.0","-1.0886202","-1.4896908"
"0.8","80","-0.004","-0.001","-0.002","0.859437","0.5156622","0.0572958"
"0.81","81","0.047","0.001","-0.023","6.4744254","2.6929026","0.4583664"
"0.81","81","-0.055","0.115","-0.062","-0.1145916","-1.8907614000000001","-0.3437748"
"0.81","81","0.002","0.013","-0.001","0.0572958","0.6875496","-0.1145916"
"0.81","81","0.003","0.006","0.0","0.0572958","-0.6302538","-0.1718874"
"0.81","81","0.014","0.016","0.002","-0.1718874","-0.8021412","-1.0886202"
"0.81","81","-0.002","-0.002","0.0","0.8021412","0.0572958","-0.1145916"
"0.8200000000000001","82","0.05","0.014","0.01","5.5003968","2.3491278","0.5156622"
"0.8200000000000001","82","-0.058","0.114","-0.069","-1.4896908","-1.8907614000000001","-0.4583664"
"0.8200000000000001","82","0.002","0.012","-0.001","0.0","0.6875496","-0.1145916"
"0.8200000000000001","82","0.01","0.008","0.0","0.0572958","-0.286479","-0.2291832"
"0.8200000000000001","82","0.013","0.015","0.002","-0.286479","-0.6302538","-0.8021412"
"0.8200000000000001","82","0.003","-0.001","0.002","0.6302538","-0.1145916","-0.286479"
"0.8300000000000001","83","0.052","0.019","0.035","1.432395","2.0053530000000004","0.1718874"
"0.8300000000000001","83","-0.056","0.11","-0.079","-1.5469865999999999","-1.6042824","-0.6875496"
"0.8300000000000001","83","0.004","0.012","0.0","0.0","0.9167328","0.0"
"0.8300000000000001","83","0.009","0.008","0.0","0.2291832","0.1145916","-0.1145916"
"0.8300000000000001","83","0.013","0.015","-0.002","-0.4010706","-0.4583664","-0.6302538"
"0.8300000000000001","83","0.006","-0.004","0.0","0.5156622","0.0572958","-0.286479"
"0.84","84","0.053","0.018","0.03","-3.437748","1.8334656","-0.286479"
"0.84","84","-0.056","0.112","-0.081","-0.286479","-1.5469865999999999","-0.572958"
"0.84","84","0.003","0.012","0.0","0.0","0.8021412","-0.0572958"
"0.84","84","0.004","0.002","-0.002","0.2291832","0.1718874","0.0"
"0.84","84","0.011","0.014","-0.008","-0.4583664","-0.3437748","-0.5156622"
"0.84","84","0.01","-0.004","-0.001","0.572958","0.1145916","-0.0572958"
"0.85","85","0.053","0.009","0.003","-7.0473834","1.3750992","-0.6302538"
"0.85","85","-0.054","0.113","-0.08","1.2032118","-1.3750992","-0.3437748"
"0.85","85","0.001","0.011","0.0","0.0572958","0.5156622","-0.0572958"
"0.85","85","0.002","0.0","-0.005","0.4010706","0.0","0.0"
"0.85","85","0.012","0.014","-0.006","-0.4010706","-0.1718874","-0.4583664"
"0.85","85","0.009","-0.002","-0.001","0.8021412","0.2291832","0.0572958"
"0.86","86","0.051","0.0","-0.023","-7.0473834","1.432395","-0.6875496"
"0.86","86","-0.045","0.11","-0.077","2.2345362","-1.4896908","-0.3437748"
"0.86","86","0.002","0.01","0.0","0.2291832","0.0572958","0.0"
"0.86","86","0.003","-0.001","-0.002","0.5156622","0.0","0.0"
"0.86","86","0.011","0.015","-0.005","-0.1718874","-0.1145916","-0.4583664"
"0.86","86","0.007","-0.003","0.0","0.9740286","0.1145916","0.3437748"
"0.87","87","0.051","-0.005","-0.044","-4.010706000000001","1.6615782000000001","-0.4010706"
"0.87","87","-0.039","0.109","-0.07","3.2085648","-1.7761698","-0.572958"
"0.87","87","0.004","0.009","0.0","0.286479","-0.4010706","0.1145916"
"0.87","87","0.0","0.0","-0.002","0.3437748","0.0572958","-0.1718874"
"0.87","87","0.011","0.015","-0.004","0.0572958","-0.0572958","-0.4010706"
"0.87","87","0.004","-0.006","0.0","0.8021412","-0.0572958","0.2291832"
"0.88","88","0.052","-0.01","-0.06","0.5156622","1.8334656","0.0"
"0.88","88","-0.04","0.11","-0.062","3.0366774","-2.3491278","-1.145916"
"0.88","88","0.007","0.01","0.0","0.3437748","-0.6875496","0.1718874"
"0.88","88","-0.004","0.003","-0.001","0.1145916","-0.2291832","-0.3437748"
"0.88","88","0.009","0.015","-0.004","0.3437748","-0.1145916","-0.286479"
"0.88","88","0.001","-0.007","0.001","0.4583664","-0.572958","0.1718874"
"0.89","89","0.053","-0.004","-0.043","6.875496","2.4637194","0.7448454"
"0.89","89","-0.046","0.112","-0.051","1.3750992","-3.0366774","-1.7761698"
"0.89","89","0.007","0.011","-0.001","0.4583664","-0.8021412","0.1145916"
"0.89","89","-0.004","0.013","0.0","0.0","-0.4583664","-0.4583664"
"0.89","89","0.008","0.016","-0.003","0.6875496","-0.1718874","-0.2291832"
"0.89","89","-0.008","-0.007","0.0","0.8021412","-0.8021412","0.1718874"
"0.9","90","0.054","0.006","-0.004","8.4224826","2.7501984","1.3750992"
"0.9","90","-0.054","0.112","-0.045","-0.3437748","-3.2658606","-2.1199445999999997"
"0.9","90","0.007","0.008","0.0","0.4583664","-0.8021412","0.0572958"
"0.9","90","0.0","0.018","0.0","0.0","-0.8021412","-0.3437748"
"0.9","90","0.007","0.014","0.0","0.9740286","-0.286479","-0.2291832"
"0.9","90","-0.005","-0.003","0.002","1.0886202","-0.7448454","0.1145916"
"0.91","91","0.061","0.02","0.035","5.6722842","3.0939731999999998","1.0886202"
"0.91","91","-0.05","0.111","-0.052","-1.9480572","-3.5523396","-2.3491278"
"0.91","91","0.005","0.008","-0.001","0.4583664","-0.9167328","0.0"
"0.91","91","0.0","0.014","0.0","0.1145916","-0.8021412","-0.4583664"
"0.91","91","0.005","0.016","0.003","1.2032118","-0.4583664","-0.286479"
"0.91","91","0.004","0.0","0.002","0.1145916","-0.5156622","0.1718874"
"0.92","92","0.065","0.021","0.039","-0.7448454","2.9793816","0.0572958"
"0.92","92","-0.047","0.112","-0.059","-2.3491278","-3.7815228000000003","-2.4637194"
"0.92","92","0.001","0.009","0.0","0.4583664","-0.6302538","-0.1145916"
"0.92","92","0.0","0.01","-0.003","0.4583664","-0.7448454","-0.572958"
"0.92","92","0.01","0.015","-0.001","1.3178034","-0.6875496","-0.286479"
"0.92","92","0.005","-0.003","0.002","0.0572958","-0.7448454","0.286479"
"0.93","93","0.055","0.013","0.013","-5.6722842","2.9220857999999996","-0.0572958"
"0.93","93","-0.043","0.114","-0.06","-1.718874","-4.1825934","-2.291832"
"0.93","93","0.002","0.008","0.001","0.4010706","-0.7448454","-0.2291832"
"0.93","93","-0.002","0.009","0.001","0.859437","-0.859437","-0.572958"
"0.93","93","0.016","0.014","0.001","1.3178034","-0.859437","-0.1718874"
"0.93","93","0.003","0.007","0.004","0.0","-1.0886202","0.4583664"
"0.9400000000000001","94","0.043","0.005","-0.017","-7.3338624","2.86479","0.0"
"0.9400000000000001","94","-0.034","0.113","-0.057","0.1718874","-4.3544808","-2.1199445999999997"
"0.9400000000000001","94","0.003","0.007","0.0","0.572958","-0.6875496","-0.1718874"
"0.9400000000000001","94","-0.001","0.011","0.001","0.6875496","-0.3437748","-0.5156622"
"0.9400000000000001","94","0.018","0.016","0.022","1.3750992","-0.859437","0.1145916"
"0.9400000000000001","94","-0.001","0.004","0.004","-0.3437748","-0.9740286","0.3437748"
"0.9500000000000001","95","0.033","0.002","-0.043","-5.443101","2.9793816","0.4583664"
"0.9500000000000001","95","-0.034","0.113","-0.048","2.1199445999999997","-4.583664","-2.2345362"
"0.9500000000000001","95","0.005","0.007","0.0","0.6302538","-0.6302538","-0.1718874"
"0.9500000000000001","95","-0.001","0.006","-0.001","0.2291832","0.0","-0.572958"
"0.9500000000000001","95","0.016","0.016","0.01","1.145916","-0.9167328","0.572958"
"0.9500000000000001","95","0.001","-0.006","0.002","-0.4583664","-0.4010706","0.3437748"
"0.96","96","0.041","0.0","-0.053","-1.3178034","3.2085648","1.3750992"
"0.96","96","-0.046","0.117","-0.045","3.151269","-4.6982556","-1.9480572"
"0.96","96","0.005","0.006","0.003","0.4583664","-0.5156622","-0.1145916"
"0.96","96","-0.005","0.007","-0.002","0.0","-0.3437748","-0.572958"
"0.96","96","0.013","0.015","0.0","0.859437","-0.9167328","0.9167328"
"0.96","96","0.002","-0.011","0.002","-0.286479","-0.286479","0.1145916"
"0.97","97","0.056","0.003","-0.037","3.437748","3.6096354","2.291832"
"0.97","97","-0.055","0.124","-0.045","2.86479","-4.9274388","-1.9480572"
"0.97","97","0.005","0.006","0.004","0.4010706","-0.6875496","-0.0572958"
"0.97","97","-0.006","0.01","0.001","0.0","-0.4583664","-0.8021412"
"0.97","97","0.01","0.018","-0.001","0.6875496","-0.9167328","1.0313244"
"0.97","97","0.001","-0.004","0.003","0.1145916","-0.8021412","-0.3437748"
"0.98","98","0.072","0.012","-0.004","5.6722842","4.010706000000001","2.6356068"
"0.98","98","-0.051","0.125","-0.041","0.9167328","-5.0993262","-2.0626488"
"0.98","98","0.004","0.006","0.003","0.5156622","-0.9740286","0.0572958"
"0.98","98","0.0","0.012","0.005","0.0","-0.4583664","-0.859437"
"0.98","98","0.013","0.016","-0.002","0.5156622","-1.0313244","0.9167328"
"0.98","98","-0.005","0.001","0.004","0.4010706","-0.859437","-0.4010706"
"0.99","99","0.073","0.018","0.007","4.1252976","3.9534102000000004","2.3491278"
"0.99","99","-0.05","0.118","-0.039","-1.3178034","-5.5003968","-2.0053530000000004"
"0.99","99","0.001","0.006","-0.001","0.6302538","-1.2605076","0.0572958"
"0.99","99","0.001","0.008","0.0","0.2291832","-0.4583664","-0.6302538"
"0.99","99","0.02","0.015","0.006","0.3437748","-1.0886202","0.7448454"
"0.99","99","-0.006","0.0","0.001","0.0","-0.3437748","-0.2291832"
"1.0","100","0.059","0.017","0.004","1.2032118","3.6669312","2.2345362"
"1.0","100","-0.048","0.114","-0.053","-1.718874","-5.5003968","-1.9480572"
"1.0","100","0.001","0.004","-0.002","0.3437748","-0.859437","0.0572958"
"1.0","100","0.0","0.002","-0.002","0.4583664","-0.4010706","-0.6875496"
"1.0","100","0.024","0.014","0.011","0.1145916","-1.0313244","0.6875496"
"1.0","100","-0.001","0.002","-0.003","0.0","-0.2291832","0.0572958"
"1.01","101","0.045","0.011","0.004","-1.6615782000000001","3.0366774","2.578311"
"1.01","101","-0.04","0.114","-0.057","0.2291832","-5.443101","-2.578311"
"1.01","101","-0.001","0.001","-0.002","0.2291832","-0.9167328","0.0"
"1.01","101","0.002","0.001","0.0","0.4583664","0.0572958","-0.859437"
"1.01","101","0.025","0.013","0.013","-0.1718874","-0.859437","0.7448454"
"1.01","101","-0.001","0.002","-0.006","0.4583664","-0.6875496","0.3437748"
"1.02","102","0.041","0.007","0.001","-2.6929026","2.4064236","2.6356068"
"1.02","102","-0.043","0.113","-0.038","3.3231564000000002","-5.3285094","-3.0366774"
"1.02","102","-0.002","0.0","0.0","0.1145916","-0.859437","-0.1145916"
"1.02","102","0.002","0.003","0.001","0.1145916","0.8021412","-0.6875496"
"1.02","102","0.023","0.014","0.014","-0.6302538","-0.572958","0.859437"
"1.02","102","0.001","0.003","-0.004","0.6875496","-0.9740286","0.5156622"
"1.03","103","0.045","0.002","-0.008","-1.6042824","1.6615782000000001","2.6929026"
"1.03","103","-0.047","0.12","-0.02","4.8128472","-5.5003968","-2.4064236"
"1.03","103","0.0","0.0","0.001","0.0","-0.859437","-0.1718874"
"1.03","103","0.002","0.006","0.0","0.0","0.859437","-0.6302538"
"1.03","103","0.019","0.016","0.01","-1.2032118","-0.286479","0.9167328"
"1.03","103","0.004","0.0","0.001","0.6875496","-0.9167328","0.3437748"
"1.04","104","0.046","-0.002","-0.015","1.6042824","1.0313244","2.7501984"
"1.04","104","-0.042","0.124","-0.02","4.3544808","-5.156622","-1.7761698"
"1.04","104","0.005","0.0","0.0","-0.1145916","-1.0313244","-0.1145916"
"1.04","104","0.002","0.007","-0.002","-0.3437748","0.572958","-0.6875496"
"1.04","104","0.015","0.015","-0.003","-1.6615782000000001","-0.0572958","0.859437"
"1.04","104","0.002","-0.001","0.002","0.4583664","-0.4583664","0.0572958"
"1.05","105","0.046","-0.003","-0.01","5.844171599999999","0.9167328","2.5210152"
"1.05","105","-0.037","0.128","-0.028","2.9220857999999996","-5.3858052","-1.4896908"
"1.05","105","0.01","0.003","0.0","0.0","-1.3750992","0.0572958"
"1.05","105","0.003","0.011","-0.004","-0.1718874","-0.0572958","-0.572958"
"1.05","105","0.009","0.013","-0.006","-1.9480572","0.0572958","0.6302538"
"1.05","105","-0.002","-0.002","0.0","0.572958","-0.7448454","0.0"
"1.06","106","0.048","-0.002","-0.001","8.136003599999999","0.9740286","2.1772404"
"1.06","106","-0.033","0.139","-0.037","1.5469865999999999","-5.156622","-1.145916"
"1.06","106","0.012","0.009","0.001","0.0572958","-1.3178034","0.1718874"
"1.06","106","0.001","0.019","-0.005","0.286479","-0.4010706","-0.4010706"
"1.06","106","0.006","0.011","0.002","-2.0626488","0.1145916","0.2291832"
"1.06","106","-0.005","-0.001","-0.001","0.5156622","-0.572958","0.0"
"1.07","107","0.047","0.002","0.028","8.7662574","0.9167328","1.9480572"
"1.07","107","-0.008","0.153","-0.045","-0.6302538","-5.3285094","-1.7761698"
"1.07","107","0.002","0.013","0.003","-0.3437748","-1.9480572","0.1718874"
"1.07","107","0.002","0.017","0.009","0.0","-0.6302538","-0.3437748"
"1.07","107","0.004","0.008","0.006","-2.1199445999999997","0.0572958","-0.1718874"
"1.07","107","-0.01","-0.008","-0.002","0.6875496","-0.6302538","0.0572958"
"1.08","108","0.047","0.007","0.051","6.4744254","0.2291832","1.3750992"
"1.08","108","-0.008","0.158","-0.022","-3.6669312","-6.0733548","-2.86479"
"1.08","108","-0.031","0.014","0.0","-1.2032118","-2.6356068","-0.1718874"
"1.08","108","0.006","0.006","0.018","-0.9740286","-0.286479","-0.2291832"
"1.08","108","0.008","0.007","-0.004","-2.291832","0.0","-0.6302538"
"1.08","108","-0.008","-0.01","-0.004","1.145916","-1.432395","0.4583664"
"1.09","109","0.036","0.011","0.054","2.578311","0.0","0.8021412"
"1.09","109","-0.043","0.163","-0.002","-6.4744254","-6.589017","-2.7501984"
"1.09","109","-0.047","0.014","-0.005","-1.145916","-3.9534102000000004","-0.6302538"
"1.09","109","0.004","0.004","0.025","-2.291832","0.4010706","-0.1718874"
"1.09","109","0.012","0.005","-0.015","-2.2345362","-0.0572958","-0.8021412"
"1.09","109","0.004","-0.003","-0.001","1.3178034","-1.7761698","0.9167328"
"1.1","110","0.05","0.004","0.042","-0.4010706","-0.4010706","0.286479"
"1.1","110","-0.059","0.168","-0.029","-7.0473834","-6.302538","-2.0053530000000004"
"1.1","110","-0.041","0.022","-0.004","0.0","-7.3911582000000005","-1.0313244"
"1.1","110","-0.02","-0.005","0.024","-3.7815228000000003","1.145916","0.2291832"
"1.1","110","0.01","0.006","-0.003","-1.8907614000000001","0.0","-0.8021412"
"1.1","110","0.018","-0.002","0.001","0.6302538","-1.6042824","1.0313244"
"1.11","111","0.058","-0.001","0.033","-1.9480572","-0.4010706","-0.0572958"
"1.11","111","-0.048","0.175","-0.064","-4.8701430000000006","-5.5576926","-1.718874"
"1.11","111","-0.029","0.032","0.002","0.3437748","-9.453807000000001","-1.0313244"
"1.11","111","-0.023","-0.008","0.005","-4.9274388","3.3804521999999997","0.572958"
"1.11","111","0.009","0.004","0.001","-1.4896908","0.0572958","-0.6302538"
"1.11","111","0.026","-0.004","0.004","0.2291832","-0.8021412","0.9167328"
"1.12","112","0.062","-0.008","0.014","-2.4637194","0.0","-0.572958"
"1.12","112","-0.033","0.181","-0.082","0.1145916","-4.7555514","-1.2032118"
"1.12","112","-0.012","0.03","0.0","0.0572958","-10.1986524","-0.5156622"
"1.12","112","0.013","-0.015","-0.015","-5.3285094","2.4064236","-0.6302538"
"1.12","112","0.014","0.003","-0.001","-1.0313244","0.1718874","-0.286479"
"1.12","112","0.025","-0.002","0.006","0.1718874","0.8021412","0.4010706"
"1.1300000000000001","113","0.06","-0.014","-0.013","-1.3750992","0.6875496","-1.0313244"
"1.1300000000000001","113","-0.018","0.194","-0.09","4.5263682","-4.010706000000001","-0.9167328"
"1.1300000000000001","113","0.013","0.022","0.001","0.4010706","-10.6570188","0.2291832"
"1.1300000000000001","113","0.025","-0.011","-0.026","-3.9534102000000004","0.8021412","-1.718874"
"1.1300000000000001","113","0.016","0.002","0.0","-0.572958","0.3437748","0.0572958"
"1.1300000000000001","113","0.018","-0.001","0.005","1.3750992","1.3178034","0.1145916"
"1.1400000000000001","114","0.054","-0.015","-0.029","3.3231564000000002","1.3750992","-0.9167328"
"1.1400000000000001","114","0.003","0.218","-0.097","7.3338624","-3.2658606","-1.432395"
"1.1400000000000001","114","0.037","0.015","0.002","0.6302538","-11.172681","0.8021412"
"1.1400000000000001","114","0.029","0.007","-0.015","-2.1199445999999997","1.718874","-1.8907614000000001"
"1.1400000000000001","114","0.013","0.002","0.008","-0.0572958","0.572958","0.4583664"
"1.1400000000000001","114","0.012","0.002","0.006","2.5210152","1.2605076","0.4010706"
"1.1500000000000001","115","0.051","-0.011","-0.018","7.563045600000001","1.5469865999999999","-0.0572958"
"1.1500000000000001","115","0.032","0.232","-0.093","6.6463128000000005","-3.151269","-3.6096354"
"1.1500000000000001","115","0.048","0.012","0.0","0.8021412","-10.7716104","0.9167328"
"1.1500000000000001","115","0.03","0.014","-0.006","-0.9740286","3.3804521999999997","-1.6042824"
"1.1500000000000001","115","0.012","0.001","0.002","0.2291832","0.8021412","0.8021412"
"1.1500000000000001","115","0.003","0.0","0.005","2.86479","1.5469865999999999","0.6875496"
"1.16","116","0.044","0.002","0.02","9.6256944","1.145916","0.5156622"
"1.16","116","0.024","0.251","-0.056","3.3804521999999997","-3.437748","-6.1306506"
"1.16","116","0.047","0.01","0.003","1.4896908","-8.307891","0.6302538"
"1.16","116","0.022","0.011","0.0","-0.3437748","4.3544808","-0.7448454"
"1.16","116","0.014","-0.001","-0.006","0.4583664","0.9740286","1.0886202"
"1.16","116","-0.005","-0.003","-0.001","2.9793816","1.4896908","1.0886202"
"1.17","117","0.039","0.013","0.054","7.7922288","0.5156622","0.4583664"
"1.17","117","-0.014","0.271","-0.024","-4.068001799999999","-3.2085648","-7.9641162"
"1.17","117","0.046","0.004","0.005","1.6042824","-5.844171599999999","0.4010706"
"1.17","117","0.014","0.0","0.0","-0.1145916","4.9274388","0.1718874"
"1.17","117","0.016","0.0","-0.005","0.7448454","1.145916","1.3750992"
"1.17","117","-0.009","-0.003","-0.009","3.2658606","1.0886202","1.2032118"
"1.18","118","0.044","0.014","0.062","3.724227","0.2291832","0.1145916"
"1.18","118","-0.031","0.285","-0.025","-11.573751600000001","-2.2345362","-8.7662574"
"1.18","118","0.043","-0.005","0.0","1.145916","-3.2085648","0.0"
"1.18","118","0.002","-0.012","-0.005","-0.1145916","4.6982556","0.8021412"
"1.18","118","0.014","0.0","-0.005","0.859437","1.3750992","1.5469865999999999"
"1.18","118","-0.006","-0.006","-0.012","3.6669312","0.6302538","0.859437"
"1.19","119","0.062","0.007","0.053","-0.9167328","0.1145916","-0.286479"
"1.19","119","-0.019","0.291","-0.045","-17.5325148","-0.9167328","-9.2246238"
"1.19","119","0.026","-0.01","-0.004","0.4583664","-1.0313244","-0.4583664"
"1.19","119","-0.013","-0.016","-0.006","-0.2291832","4.2398891999999995","0.7448454"
"1.19","119","0.014","0.001","0.001","0.9740286","1.5469865999999999","1.5469865999999999"
"1.19","119","-0.002","-0.006","-0.008","3.724227","1.2032118","0.1145916"
"1.2","120","0.07","-0.001","0.04","-4.5263682","0.1718874","-0.8021412"
"1.2","120","0.018","0.309","-0.079","-19.4232762","0.2291832","-9.8548776"
"1.2","120","0.0","-0.011","-0.006","-0.2291832","0.286479","-0.9740286"
"1.2","120","-0.027","-0.016","-0.002","-0.572958","3.5523396","0.3437748"
"1.2","120","0.017","0.005","0.0","1.0313244","1.6615782000000001","1.432395"
"1.2","120","-0.003","-0.01","-0.001","4.1825934","1.8334656","-0.2291832"
"1.21","121","0.064","-0.006","0.023","-5.2712136","0.4010706","-1.7761698"
"1.21","121","0.038","0.332","-0.116","-18.220064400000002","0.9740286","-11.0580894"
"1.21","121","-0.008","-0.007","-0.003","-0.2291832","0.9740286","-1.2032118"
"1.21","121","-0.031","-0.01","0.001","-1.0313244","1.8907614000000001","-0.1145916"
"1.21","121","0.022","0.007","-0.005","1.2032118","1.8334656","1.3750992"
"1.21","121","-0.014","-0.014","0.002","4.583664","1.5469865999999999","0.0572958"
"1.22","122","0.048","-0.009","0.004","-3.5523396","0.6302538","-2.4064236"
"1.22","122","0.06","0.353","-0.15","-17.0741484","1.0886202","-14.839612200000001"
"1.22","122","-0.001","0.003","0.0","-0.1145916","0.4010706","-1.3750992"
"1.22","122","-0.02","0.004","0.0","-1.3178034","0.1145916","-0.4583664"
"1.22","122","0.029","0.007","-0.003","1.432395","2.0053530000000004","1.6042824"
"1.22","122","-0.024","-0.014","-0.001","4.4690724","1.2032118","0.5156622"
"1.23","123","0.042","-0.004","0.003","1.8334656","1.3178034","-2.578311"
"1.23","123","0.093","0.397","-0.077","-15.9282324","1.5469865999999999","-20.912967"
"1.23","123","0.008","0.017","-0.002","-0.1718874","0.0","-1.3178034"
"1.23","123","-0.002","0.02","-0.001","-1.145916","-2.0053530000000004","-0.859437"
"1.23","123","0.03","0.005","0.002","1.718874","2.291832","2.1199445999999997"
"1.23","123","-0.043","-0.016","-0.012","5.6722842","0.0","0.859437"
"1.24","124","0.056","0.005","0.026","4.5263682","2.0053530000000004","-2.4064236"
"1.24","124","0.102","0.433","0.023","-22.173474600000002","1.7761698","-26.814434400000003"
"1.24","124","0.035","0.027","-0.002","-0.4583664","1.3178034","-1.0886202"
"1.24","124","0.008","0.028","-0.006","-0.4583664","-3.3231564000000002","-1.145916"
"1.24","124","0.031","0.004","-0.001","1.8334656","2.5210152","2.6929026"
"1.24","124","-0.068","-0.016","-0.018","7.0473834","-2.9220857999999996","1.0886202"
"1.25","125","0.074","0.02","0.059","3.724227","2.9220857999999996","-2.3491278"
"1.25","125","0.023","0.474","0.169","-41.4248634","1.9480572","-31.5699858"
"1.25","125","0.08","0.031","0.006","-0.8021412","4.6982556","-0.8021412"
"1.25","125","0.01","0.03","-0.01","0.286479","-4.6409598","-1.432395"
"1.25","125","0.034","0.005","-0.012","1.8334656","2.6356068","3.3231564000000002"
"1.25","125","-0.082","-0.012","-0.022","8.307891","-6.4171296","1.145916"
"1.26","126","0.09","0.031","0.089","-1.145916","3.9534102000000004","-2.4064236"
"1.26","126","-0.084","0.517","0.261","-70.2446508","4.8701430000000006","-29.679224400000003"
"1.26","126","0.135","0.033","0.021","-1.718874","9.2819196","-0.286479"
"1.26","126","-0.014","0.022","-0.01","0.9740286","-6.9327917999999995","-1.8907614000000001"
"1.26","126","0.038","0.008","-0.01","1.8907614000000001","2.6929026","3.9534102000000004"
"1.26","126","-0.078","-0.011","-0.016","10.0840608","-10.7143146","1.432395"
"1.27","127","0.099","0.036","0.093","-6.8182002","4.583664","-3.0366774"
"1.27","127","-0.12","0.548","0.211","-103.418919","11.1153852","-25.9549974"
"1.27","127","0.134","0.032","0.032","-3.7815228000000003","13.292625600000001","-0.1145916"
"1.27","127","-0.029","0.008","-0.002","1.432395","-8.9381448","-2.6356068"
"1.27","127","0.038","0.013","0.006","2.1199445999999997","2.8074942000000003","4.4117766"
"1.27","127","-0.048","-0.023","-0.006","10.313244","-14.2666542","1.5469865999999999"
"1.28","128","0.101","0.036","0.082","-12.318597","5.3285094","-4.1252976"
"1.28","128","-0.069","0.536","0.073","-136.4785956","20.3973048","-21.9442914"
"1.28","128","0.08","0.026","0.022","-5.786875800000001","17.5898106","-0.6875496"
"1.28","128","-0.029","-0.007","0.002","1.145916","-10.3705398","-3.2085648"
"1.28","128","0.031","0.019","0.0","2.2345362","2.8074942000000003","4.583664"
"1.28","128","-0.013","-0.036","0.003","10.3705398","-16.386598799999998","1.7761698"
"1.29","129","0.076","0.026","0.047","-17.246035799999998","5.9587632","-5.5003968"
"1.29","129","0.005","0.51","-0.02","-147.9377556","28.934379","-17.8762896"
"1.29","129","-0.004","0.021","0.001","-5.844171599999999","20.225417399999998","-1.718874"
"1.29","129","-0.037","-0.02","0.0","0.6875496","-12.7196676","-3.6096354"
"1.29","129","0.019","0.023","-0.013","2.4064236","2.6356068","4.4117766"
"1.29","129","0.005","-0.036","0.022","9.969469199999999","-17.7044022","2.1772404"
"1.3","130","0.035","0.018","0.005","-17.761698","6.875496","-5.9014674"
"1.3","130","0.036","0.489","-0.063","-143.64057060000002","36.726607800000004","-14.0947668"
"1.3","130","-0.074","0.029","-0.005","-4.068001799999999","19.0222056","-2.86479"
"1.3","130","-0.033","-0.035","-0.003","0.4583664","-15.699049200000001","-3.8388186"
"1.3","130","0.012","0.028","-0.022","2.8074942000000003","2.291832","3.724227"
"1.3","130","0.021","-0.015","0.037","9.110032200000001","-18.8503182","2.4064236"
"1.31","131","0.041","0.021","-0.016","-13.006146600000001","7.1046792","-6.4171296"
"1.31","131","-0.01","0.498","-0.147","-127.48315500000001","46.1804148","-9.0527364"
"1.31","131","-0.113","0.041","-0.008","-2.8074942000000003","15.527161800000002","-3.4950438"
"1.31","131","-0.021","-0.041","-0.007","0.2291832","-18.220064400000002","-3.9534102000000004"
"1.31","131","0.014","0.027","-0.016","3.3804521999999997","1.718874","2.7501984"
"1.31","131","0.044","0.002","0.045","6.875496","-19.480572000000002","2.1772404"
"1.32","132","0.05","0.027","-0.021","-5.5003968","7.3911582000000005","-6.6463128000000005"
"1.32","132","-0.035","0.513","-0.212","-112.81543020000001","54.7747848","-6.760904399999999"
"1.32","132","-0.116","0.047","-0.011","-2.2345362","10.313244","-3.8388186"
"1.32","132","-0.007","-0.049","-0.014","0.6302538","-19.5378678","-4.068001799999999"
"1.32","132","0.023","0.028","0.0","4.010706000000001","1.145916","1.718874"
"1.32","132","0.035","-0.006","0.027","5.2139178","-19.4232762","1.3750992"
"1.33","133","0.048","0.037","-0.023","-1.2605076","7.734933000000001","-7.3911582000000005"
"1.33","133","-0.062","0.525","-0.218","-94.3661826","63.25456320000001","-3.8388186"
"1.33","133","-0.104","0.052","-0.012","-2.2345362","6.4171296","-3.437748"
"1.33","133","0.01","-0.048","-0.019","1.145916","-19.6524594","-3.8961144"
"1.33","133","0.026","0.024","0.004","4.3544808","0.572958","1.0886202"
"1.33","133","0.032","-0.006","0.01","4.9847345999999995","-19.6524594","0.5156622"
"1.34","134","0.049","0.045","-0.035","0.9740286","8.021412000000002","-8.078707799999998"
"1.34","134","-0.068","0.509","-0.209","-71.1613836","74.7137232","-0.4010706"
"1.34","134","-0.092","0.056","-0.009","-2.0053530000000004","2.0053530000000004","-2.6929026"
"1.34","134","0.023","-0.039","-0.019","1.718874","-19.194093000000002","-3.7815228000000003"
"1.34","134","0.017","0.02","0.043","4.4690724","0.0","0.7448454"
"1.34","134","0.013","-0.012","0.001","3.7815228000000003","-19.480572000000002","-0.1718874"
"1.35","135","0.053","0.054","-0.056","3.2085648","7.6776372","-7.9641162"
"1.35","135","-0.098","0.457","-0.18","-54.2018268","83.1362058","2.3491278"
"1.35","135","-0.086","0.052","-0.009","-2.1199445999999997","-3.151269","-1.432395"
"1.35","135","0.018","-0.032","-0.009","1.8334656","-17.5898106","-3.3231564000000002"
"1.35","135","0.018","0.016","0.053","3.8388186","-0.6875496","0.572958"
"1.35","135","-0.004","-0.025","-0.011","2.4637194","-19.9962342","-0.4583664"
"1.36","136","0.058","0.061","-0.075","4.7555514","7.1046792","-7.2765666"
"1.36","136","-0.1","0.438","-0.13","-39.648693599999994","92.01705480000001","5.844171599999999"
"1.36","136","-0.084","0.041","-0.004","-1.8334656","-7.906820400000001","-0.1718874"
"1.36","136","0.011","-0.03","0.001","1.2605076","-16.329303","-2.9793816"
"1.36","136","0.019","0.008","0.04","2.6356068","-1.5469865999999999","0.6302538"
"1.36","136","-0.008","-0.03","-0.014","2.4064236","-20.798375399999998","-0.1718874"
"1.37","137","0.056","0.068","-0.084","6.1306506","6.0733548","-5.72958"
"1.37","137","-0.05","0.439","-0.116","-34.5493674","100.7260164","6.589017"
"1.37","137","-0.075","0.021","-0.004","-1.145916","-13.6364004","1.3750992"
"1.37","137","0.012","-0.023","0.002","0.4583664","-15.126091200000001","-2.86479"
"1.37","137","0.009","0.009","0.04","1.145916","-2.4637194","0.6302538"
"1.37","137","-0.007","-0.03","-0.004","2.4637194","-20.9702628","0.1718874"
"1.3800000000000001","138","0.049","0.079","-0.078","7.563045600000001","4.9274388","-3.437748"
"1.3800000000000001","138","-0.044","0.439","-0.095","-41.0810886","104.7940182","2.9220857999999996"
"1.3800000000000001","138","-0.061","0.006","-0.009","0.0572958","-18.2773602","2.291832"
"1.3800000000000001","138","0.016","-0.017","-0.007","1.0886202","-14.896908","-3.0366774"
"1.3800000000000001","138","0.006","0.006","0.033","-0.572958","-3.7815228000000003","0.4010706"
"1.3800000000000001","138","-0.008","-0.013","0.004","2.1772404","-21.0275586","0.4010706"
"1.3900000000000001","139","0.051","0.089","-0.063","7.6776372","3.5523396","-1.718874"
"1.3900000000000001","139","-0.127","0.434","-0.031","-53.571573","106.91396280000001","0.7448454"
"1.3900000000000001","139","-0.043","-0.004","-0.013","1.3750992","-21.9442914","2.8074942000000003"
"1.3900000000000001","139","0.014","-0.009","-0.009","2.1772404","-14.152062599999999","-3.0366774"
"1.3900000000000001","139","0.011","0.001","0.017","-2.291832","-5.2139178","0.0"
"1.3900000000000001","139","-0.006","-0.001","0.006","2.8074942000000003","-20.4546006","0.5156622"
"1.4000000000000001","140","0.054","0.094","-0.052","6.2452422","2.1772404","-0.6302538"
"1.4000000000000001","140","-0.188","0.41","-0.031","-71.33327100000001","110.1798234","2.6929026"
"1.4000000000000001","140","-0.025","-0.012","-0.014","3.2658606","-24.465306599999998","2.86479"
"1.4000000000000001","140","0.015","0.001","-0.004","2.6356068","-12.7769634","-3.0366774"
"1.4000000000000001","140","0.017","0.002","0.013","-3.8388186","-6.8182002","-0.5156622"
"1.4000000000000001","140","0.008","-0.001","0.011","3.3231564000000002","-19.9962342","0.5156622"
"1.41","141","0.053","0.09","-0.063","3.6096354","0.5156622","0.1145916"
"1.41","141","-0.182","0.375","-0.108","-81.8756982","112.872726","4.2398891999999995"
"1.41","141","-0.007","-0.014","-0.007","4.4117766","-25.210152","2.6356068"
"1.41","141","0.015","0.004","-0.001","2.7501984","-11.516455800000001","-2.6356068"
"1.41","141","0.02","0.005","0.01","-4.9847345999999995","-8.307891","-1.145916"
"1.41","141","0.019","-0.012","0.013","3.3231564000000002","-18.334656","0.3437748"
"1.42","142","0.047","0.081","-0.082","2.0053530000000004","-0.9167328","0.9740286"
"1.42","142","-0.159","0.335","-0.193","-80.8443738","115.33644539999999","4.9274388"
"1.42","142","0.009","-0.016","0.001","5.3285094","-24.751785599999998","2.3491278"
"1.42","142","0.011","0.001","-0.003","2.9793816","-10.0840608","-2.1772404"
"1.42","142","0.022","0.002","-0.003","-5.9014674","-9.6829902","-1.7761698"
"1.42","142","0.018","-0.021","0.012","3.4950438","-17.4179232","0.3437748"
"1.43","143","0.04","0.074","-0.093","2.4637194","-2.7501984","2.1199445999999997"
"1.43","143","-0.13","0.327","-0.239","-66.2912406","118.71689760000001","4.583664"
"1.43","143","0.028","-0.017","0.006","6.0733548","-22.0015872","1.9480572"
"1.43","143","0.011","-0.002","-0.002","3.0366774","-8.880849","-1.8334656"
"1.43","143","0.03","0.001","-0.011","-6.4171296","-10.886202","-2.578311"
"1.43","143","0.014","-0.026","0.01","3.0366774","-16.272007199999997","0.2291832"
"1.44","144","0.033","0.072","-0.085","4.9274388","-5.2139178","3.6669312"
"1.44","144","-0.101","0.323","-0.255","-48.987909","120.894138","2.2345362"
"1.44","144","0.043","-0.015","0.003","6.302538","-19.4232762","1.9480572"
"1.44","144","0.008","0.0","0.0","3.151269","-7.7922288","-1.6042824"
"1.44","144","0.033","0.002","-0.01","-6.4744254","-11.745638999999999","-3.3231564000000002"
"1.44","144","0.01","-0.025","0.005","1.9480572","-13.9228794","0.2291832"
"1.45","145","0.032","0.076","-0.052","7.3338624","-8.078707799999998","5.0993262"
"1.45","145","-0.078","0.189","-0.157","-30.1948866","122.6703078","-3.6096354"
"1.45","145","0.055","-0.01","-0.001","5.844171599999999","-17.18874","1.8334656"
"1.45","145","0.004","0.0","0.0","3.2085648","-7.1046792","-1.432395"
"1.45","145","0.035","0.003","-0.012","-6.3598338","-12.375892799999999","-4.1252976"
"1.45","145","0.007","-0.024","0.0","1.9480572","-12.4331886","0.0"
"1.46","146","0.038","0.082","0.001","7.0473834","-10.0840608","5.9587632"
"1.46","146","-0.152","0.406","-0.003","-27.501984","119.9201094","-7.6776372"
"1.46","146","0.058","-0.006","-0.001","4.8128472","-14.32395","1.432395"
"1.46","146","-0.003","0.0","0.0","3.3231564000000002","-6.3598338","-1.432395"
"1.46","146","0.045","0.004","-0.024","-6.0733548","-12.6623718","-4.8701430000000006"
"1.46","146","0.004","-0.026","-0.006","1.4896908","-11.4018642","-0.2291832"
"1.47","147","0.053","0.083","0.045","2.3491278","-12.375892799999999","5.6149884000000005"
"1.47","147","-0.196","0.303","0.094","-48.70143","116.99802359999998","-3.9534102000000004"
"1.47","147","0.058","-0.007","0.001","3.6669312","-11.8029348","0.859437"
"1.47","147","-0.006","0.01","0.002","3.0939731999999998","-5.72958","-1.5469865999999999"
"1.47","147","0.046","0.006","-0.027","-5.443101","-12.5477802","-5.6149884000000005"
"1.47","147","0.003","-0.021","-0.011","1.3178034","-9.969469199999999","-0.6875496"
"1.48","148","0.052","0.08","0.069","-4.1825934","-14.2093584","4.7555514"
"1.48","148","-0.224","0.322","0.004","-67.7236356","114.41971260000001","0.0572958"
"1.48","148","0.057","-0.008","-0.002","2.1772404","-9.6256944","0.0572958"
"1.48","148","-0.006","0.016","0.003","2.9220857999999996","-5.6722842","-1.5469865999999999"
"1.48","148","0.046","0.008","-0.022","-4.583664","-12.1467096","-6.2452422"
"1.48","148","0.008","-0.017","-0.009","0.3437748","-8.5370742","-1.0886202"
"1.49","149","0.048","0.073","0.064","-8.078707799999998","-15.699049200000001","2.6356068"
"1.49","149","-0.207","0.318","-0.156","-74.1407652","114.0759378","3.151269"
"1.49","149","0.047","-0.01","-0.001","1.8334656","-7.8495246000000005","-0.572958"
"1.49","149","-0.01","0.018","0.0","2.6929026","-5.9014674","-1.6042824"
"1.49","149","0.04","0.01","-0.026","-3.6669312","-11.516455800000001","-6.875496"
"1.49","149","0.016","-0.008","-0.005","-0.1145916","-7.2192708","-0.9167328"
"1.5","150","0.039","0.039","0.023","-8.9954406","-17.761698","0.4583664"
"1.5","150","-0.151","0.286","-0.33","-59.014674","116.2531782","4.1825934"
"1.5","150","0.03","-0.015","-0.003","1.8907614000000001","-5.6149884000000005","-1.145916"
"1.5","150","-0.009","0.022","-0.002","2.4064236","-6.3598338","-1.718874"
"1.5","150","0.029","0.007","0.001","-2.6929026","-10.7716104","-7.5057498"
"1.5","150","0.029","0.013","0.009","-0.4010706","-6.8182002","-0.5156622"
"1.51","151","0.026","0.009","-0.031","-7.734933000000001","-19.0795014","0.0"
"1.51","151","-0.119","0.226","-0.402","-28.5333084","118.60230599999998","0.1145916"
"1.51","151","0.012","-0.027","-0.001","3.0366774","-1.7761698","-1.7761698"
"1.51","151","-0.002","0.025","-0.003","2.6356068","-6.875496","-1.8907614000000001"
"1.51","151","0.026","0.009","0.024","-2.1199445999999997","-10.0840608","-8.3651868"
"1.51","151","0.031","0.028","0.023","-1.2605076","-8.193299399999999","-0.2291832"
"1.52","152","0.029","-0.004","-0.058","-2.9220857999999996","-19.595163600000003","0.9167328"
"1.52","152","-0.116","0.3","-0.323","2.2345362","123.24326579999999","-5.786875800000001"
"1.52","152","0.013","-0.028","0.006","4.4117766","1.6042824","-2.2345362"
"1.52","152","0.003","0.025","0.001","2.7501984","-6.9900876","-2.0626488"
"1.52","152","0.02","0.007","0.013","-2.0053530000000004","-9.453807000000001","-9.110032200000001"
"1.52","152","0.031","0.022","0.027","-2.0626488","-9.167328","-0.4583664"
"1.53","153","0.037","-0.004","-0.03","3.0366774","-19.824346799999997","2.1772404"
"1.53","153","-0.139","0.284","-0.083","17.8762896","124.7902524","-9.8548776"
"1.53","153","0.026","0.002","0.012","4.010706000000001","1.8334656","-2.291832"
"1.53","153","0.01","0.024","0.0","2.9220857999999996","-6.9327917999999995","-1.9480572"
"1.53","153","0.019","0.004","0.012","-2.0053530000000004","-8.880849","-9.740286000000001"
"1.53","153","0.017","0.009","0.021","-2.1199445999999997","-9.2246238","-1.2605076"
"1.54","154","0.062","0.001","0.026","8.136003599999999","-19.4232762","2.4064236"
"1.54","154","-0.199","0.317","0.144","8.2505952","124.6756608","-10.0840608"
"1.54","154","0.01","0.011","0.011","3.3231564000000002","1.8907614000000001","-1.3178034"
"1.54","154","0.017","0.021","0.002","2.9793816","-6.4744254","-2.0053530000000004"
"1.54","154","0.017","0.0","0.02","-2.1772404","-8.479778399999999","-9.969469199999999"
"1.54","154","0.008","0.004","0.009","-1.6615782000000001","-10.886202","-2.2345362"
"1.55","155","0.068","0.004","0.054","7.5057498","-18.6784308","2.0053530000000004"
"1.55","155","-0.225","0.353","0.167","-13.865583599999999","126.5664222","-4.9847345999999995"
"1.55","155","-0.027","-0.016","-0.001","5.3858052","4.068001799999999","0.6302538"
"1.55","155","0.018","0.015","0.004","2.86479","-5.6149884000000005","-1.7761698"
"1.55","155","0.018","0.002","0.026","-2.6929026","-8.021412000000002","-10.026765"
"1.55","155","0.008","0.007","-0.001","-0.9740286","-10.886202","-2.6929026"
"1.56","156","0.065","0.003","0.065","5.156622","-17.5325148","1.3750992"
"1.56","156","-0.217","0.307","0.026","-40.393539","130.634424","-1.2032118"
"1.56","156","-0.039","-0.042","-0.012","8.2505952","5.0993262","2.578311"
"1.56","156","0.012","0.002","0.002","2.6929026","-5.2139178","-1.4896908"
"1.56","156","0.015","0.006","0.015","-3.4950438","-7.6203414","-10.026765"
"1.56","156","0.005","0.004","-0.008","0.0","-9.797581800000001","-2.6356068"
"1.57","157","0.057","0.0","0.07","1.145916","-16.7303736","0.7448454"
"1.57","157","-0.182","0.31","-0.114","-45.8939358","136.364004","4.068001799999999"
"1.57","157","-0.028","-0.039","-0.008","9.912173399999999","3.6096354","3.7815228000000003"
"1.57","157","0.008","-0.009","-0.001","2.6929026","-5.156622","-1.0313244"
"1.57","157","0.007","0.008","0.002","-4.2398891999999995","-7.161975","-10.1986524"
"1.57","157","0.005","0.003","-0.008","0.3437748","-8.9954406","-2.4064236"
"1.58","158","0.054","-0.012","0.059","-3.5523396","-15.870936600000002","0.0"
"1.58","158","-0.123","0.304","-0.283","-34.8358464","144.958374","6.8182002"
"1.58","158","-0.018","-0.023","0.001","10.5424272","1.3178034","3.9534102000000004"
"1.58","158","0.004","-0.021","-0.005","2.6929026","-5.443101","-0.6875496"
"1.58","158","0.001","0.018","0.008","-4.6409598","-6.760904399999999","-10.599723"
"1.58","158","0.018","0.003","0.004","0.0","-8.307891","-2.2345362"
"1.59","159","0.058","-0.026","0.029","-6.6463128000000005","-15.2406828","-0.4583664"
"1.59","159","-0.082","0.302","-0.341","-13.006146600000001","154.7559558","-1.718874"
"1.59","159","-0.018","-0.004","0.012","10.3705398","-0.9740286","3.9534102000000004"
"1.59","159","0.002","-0.027","0.0","2.9220857999999996","-4.4690724","-0.6302538"
"1.59","159","0.004","0.025","0.004","-4.8128472","-6.5317212","-11.0580894"
"1.59","159","0.026","0.007","0.031","-0.572958","-6.760904399999999","-1.8334656"
"1.6","160","0.067","-0.039","0.006","-5.443101","-14.839612200000001","-0.4010706"
"1.6","160","-0.126","0.329","-0.188","4.8701430000000006","162.7773678","-14.3812458"
"1.6","160","-0.018","-0.004","0.014","9.0527364","-1.3750992","4.3544808"
"1.6","160","0.001","-0.026","0.002","2.9793816","-3.0939731999999998","-0.5156622"
"1.6","160","0.013","0.029","-0.01","-4.8128472","-6.3598338","-11.4018642"
"1.6","160","0.008","0.001","0.036","-0.6875496","-6.589017","-1.2605076"
"1.61","161","0.065","-0.041","0.014","-2.2345362","-14.5531332","-0.2291832"
"1.61","161","-0.221","0.328","0.063","0.6302538","169.1944974","-17.246035799999998"
"1.61","161","-0.004","-0.033","0.0","9.6256944","-0.0572958","5.443101"
"1.61","161","0.005","-0.01","0.006","2.9793816","-0.7448454","-0.4583664"
"1.61","161","0.019","0.033","-0.015","-4.4690724","-6.1306506","-11.3445684"
"1.61","161","-0.003","0.01","0.015","-1.8334656","-7.2192708","-1.5469865999999999"
"1.62","162","0.057","-0.036","0.028","0.0572958","-13.865583599999999","-0.5156622"
"1.62","162","-0.294","0.324","0.189","-28.304125199999998","176.2991766","-13.579104599999999"
"1.62","162","0.029","-0.039","-0.005","10.599723","-0.286479","5.6722842"
"1.62","162","0.007","0.003","0.0","3.2085648","1.145916","-0.5156622"
"1.62","162","0.027","0.035","-0.029","-3.8388186","-5.786875800000001","-10.8289062"
"1.62","162","-0.004","0.026","-0.015","-2.9793816","-6.302538","-3.0939731999999998"
"1.6300000000000001","163","0.053","-0.033","0.042","0.6302538","-12.891555","-1.145916"
"1.6300000000000001","163","-0.31","0.296","0.228","-56.8374336","181.054728","-8.59437"
"1.6300000000000001","163","0.048","-0.028","-0.009","11.3445684","-1.7761698","5.5576926"
"1.6300000000000001","163","0.002","0.007","-0.003","3.2085648","1.6615782000000001","-0.5156622"
"1.6300000000000001","163","0.029","0.037","-0.031","-2.7501984","-5.2139178","-9.912173399999999"
"1.6300000000000001","163","0.0","0.024","-0.025","-2.6356068","-5.5576926","-3.7815228000000003"
"1.6400000000000001","164","0.053","-0.032","0.057","-0.6302538","-11.9175264","-2.1772404"
"1.6400000000000001","164","-0.271","0.315","0.086","-86.5739538","187.070787","6.589017"
"1.6400000000000001","164","0.048","-0.009","-0.007","12.1467096","-2.578311","4.8128472"
"1.6400000000000001","164","0.0","0.007","-0.007","3.0939731999999998","1.6042824","-0.286479"
"1.6400000000000001","164","0.019","0.038","-0.02","-1.4896908","-4.5263682","-8.880849"
"1.6400000000000001","164","0.0","0.014","-0.023","-1.5469865999999999","-5.3858052","-3.8961144"
"1.6500000000000001","165","0.049","-0.032","0.06","-3.724227","-11.1153852","-3.2085648"
"1.6500000000000001","165","-0.278","0.304","-0.162","-102.1011156","194.92031160000002","15.3552744"
"1.6500000000000001","165","0.038","0.007","-0.001","9.969469199999999","-2.4064236","3.5523396"
"1.6500000000000001","165","-0.004","0.002","-0.008","3.4950438","0.9740286","-0.1718874"
"1.6500000000000001","165","0.01","0.035","-0.009","-0.1718874","-3.8961144","-7.9641162"
"1.6500000000000001","165","0.002","0.022","-0.01","-1.0886202","-5.0993262","-3.2658606"
"1.6600000000000001","166","0.054","-0.037","0.038","-6.703608600000001","-10.3705398","-4.5263682"
"1.6600000000000001","166","-0.25","0.248","-0.393","-95.85587340000001","203.0563152","14.0947668"
"1.6600000000000001","166","0.033","0.007","0.001","7.161975","-2.0053530000000004","2.2345362"
"1.6600000000000001","166","-0.002","0.0","-0.002","3.7815228000000003","-0.2291832","0.0572958"
"1.6600000000000001","166","0.005","0.033","0.004","0.9740286","-3.437748","-7.2192708"
"1.6600000000000001","166","-0.004","0.025","0.0","-1.4896908","-5.2712136","-2.6356068"
"1.67","167","0.064","-0.043","0.01","-6.8182002","-9.6829902","-4.8128472"
"1.67","167","-0.238","0.313","-0.498","-70.9894962","211.421502","0.2291832"
"1.67","167","0.03","0.003","0.007","3.2658606","-1.2032118","1.0886202"
"1.67","167","0.003","-0.002","0.0","3.6669312","-0.4583664","0.3437748"
"1.67","167","0.007","0.032","0.008","1.8334656","-3.2658606","-6.5317212"
"1.67","167","-0.011","0.015","0.001","-1.8334656","-6.1306506","-2.6929026"
"1.68","168","0.066","-0.043","-0.001","-4.9274388","-9.2819196","-5.156622"
"1.68","168","-0.284","0.361","-0.373","-56.2644756","219.2710266","-11.573751600000001"
"1.68","168","0.026","-0.002","0.008","1.3750992","-0.7448454","0.4583664"
"1.68","168","0.003","0.0","0.005","3.0366774","-0.6875496","0.5156622"
"1.68","168","0.015","0.029","0.0","2.4637194","-3.2085648","-5.844171599999999"
"1.68","168","-0.011","0.018","-0.006","-2.0053530000000004","-7.734933000000001","-3.0939731999999998"
"1.69","169","0.076","-0.04","-0.011","-1.7761698","-8.307891","-5.6722842"
"1.69","169","-0.349","0.324","-0.07","-54.4883058","228.55294619999998","-16.042824000000003"
"1.69","169","0.018","-0.007","0.008","0.8021412","-0.1145916","0.4010706"
"1.69","169","-0.005","-0.002","0.003","2.6356068","-1.718874","0.4583664"
"1.69","169","0.029","0.026","-0.004","3.0366774","-3.151269","-4.8701430000000006"
"1.69","169","-0.001","0.024","-0.017","-2.9220857999999996","-8.5370742","-3.8961144"
"1.7","170","0.082","-0.042","-0.028","0.572958","-6.8182002","-5.6722842"
"1.7","170","-0.392","0.207","0.381","-71.8489332","236.9754288","-10.7143146"
"1.7","170","0.006","-0.002","0.005","0.2291832","0.0","0.8021412"
"1.7","170","-0.01","0.0","0.0","2.3491278","-3.151269","0.2291832"
"1.7","170","0.035","0.019","-0.004","3.5523396","-3.0366774","-3.6096354"
"1.7","170","-0.018","0.001","-0.027","-2.3491278","-10.4851314","-4.583664"
"1.71","171","0.063","-0.037","-0.022","2.86479","-4.9847345999999995","-4.583664"
"1.71","171","-0.429","0.175","0.576","-96.3715356","239.5537398","6.8182002"
"1.71","171","0.0","0.0","0.001","0.0","-0.1718874","1.2032118"
"1.71","171","-0.007","0.008","-0.005","2.4064236","-4.068001799999999","0.0"
"1.71","171","0.025","0.016","0.011","3.8961144","-2.578311","-2.1772404"
"1.71","171","-0.035","-0.012","-0.015","0.1145916","-12.891555","-4.9847345999999995"
"1.72","172","0.051","-0.016","0.016","3.0366774","-2.9793816","-3.2085648"
"1.72","172","-0.406","0.208","0.419","-139.9163436","241.215318","29.1635622"
"1.72","172","-0.007","0.001","0.002","-0.1145916","-1.2605076","1.432395"
"1.72","172","0.003","0.025","-0.008","2.5210152","-4.3544808","-0.1145916"
"1.72","172","0.015","0.017","0.011","4.010706000000001","-1.9480572","-1.145916"
"1.72","172","-0.038","0.002","0.014","0.3437748","-13.579104599999999","-4.3544808"
"1.73","173","0.065","-0.003","0.041","1.145916","-1.2605076","-3.0366774"
"1.73","173","-0.39","0.135","0.028","-185.9821668","239.38185239999999","48.4722468"
"1.73","173","-0.015","0.01","0.004","0.0","-3.2658606","1.3750992"
"1.73","173","0.014","0.044","0.0","2.6356068","-3.3231564000000002","-0.1145916"
"1.73","173","0.009","0.018","0.008","3.8961144","-1.432395","-0.7448454"
"1.73","173","-0.02","0.028","0.035","-0.286479","-14.2666542","-3.2658606"
"1.74","174","0.08","-0.003","0.042","-0.7448454","0.0572958","-3.2085648"
"1.74","174","-0.37","-0.002","-0.312","-194.2900578","233.480385","53.858051999999994"
"1.74","174","-0.027","0.019","0.002","0.859437","-4.7555514","1.3750992"
"1.74","174","0.013","0.046","0.014","2.1199445999999997","-2.4064236","-0.1718874"
"1.74","174","0.008","0.023","0.021","3.7815228000000003","-1.0313244","-0.6302538"
"1.74","174","0.01","0.043","0.05","-1.0313244","-14.9542038","-1.5469865999999999"
"1.75","175","0.081","-0.01","0.02","-2.7501984","0.9740286","-3.3804521999999997"
"1.75","175","-0.278","-0.09","-0.574","-164.725425","225.8027478","51.9672906"
"1.75","175","-0.032","0.028","-0.003","1.5469865999999999","-6.4171296","1.3178034"
"1.75","175","0.007","0.041","0.014","1.6042824","-2.6356068","-0.1145916"
"1.75","175","0.017","0.028","0.031","3.4950438","-0.5156622","-0.6875496"
"1.75","175","0.026","0.031","0.045","-2.6356068","-14.3812458","-0.9740286"
"1.76","176","0.072","-0.016","-0.005","-3.6669312","1.5469865999999999","-3.724227"
"1.76","176","-0.207","-0.128","-0.581","-86.80313699999999","219.5002098","50.0192334"
"1.76","176","-0.028","0.039","-0.006","2.0053530000000004","-8.021412000000002","1.432395"
"1.76","176","-0.004","0.023","0.004","1.8334656","-3.9534102000000004","0.0"
"1.76","176","0.031","0.033","0.016","2.9220857999999996","0.0","-0.859437"
"1.76","176","0.035","-0.002","0.018","-3.3231564000000002","-12.605076","-1.145916"
"1.77","177","0.06","-0.019","-0.029","-2.9220857999999996","2.0626488","-3.8388186"
"1.77","177","-0.219","-0.113","-0.323","-32.0283522","215.37491219999998","40.450834799999996"
"1.77","177","-0.021","0.042","-0.008","2.578311","-8.7662574","1.6615782000000001"
"1.77","177","-0.015","0.0","-0.001","2.0053530000000004","-5.9014674","0.1718874"
"1.77","177","0.042","0.033","-0.001","2.291832","0.7448454","-0.859437"
"1.77","177","0.043","-0.004","-0.011","-3.8961144","-10.3705398","-2.2345362"
"1.78","178","0.048","-0.02","-0.034","0.0","2.291832","-3.5523396"
"1.78","178","-0.253","-0.087","-0.072","11.516455800000001","210.562065","38.5600734"
"1.78","178","-0.012","0.044","-0.004","3.151269","-9.0527364","1.8907614000000001"
"1.78","178","-0.021","-0.014","-0.007","1.8907614000000001","-8.2505952","0.0"
"1.78","178","0.045","0.035","-0.01","2.0626488","1.718874","-0.4583664"
"1.78","178","0.039","0.015","-0.036","-5.443101","-8.7089616","-3.9534102000000004"
"1.79","179","0.039","-0.009","-0.001","4.297185","2.0053530000000004","-3.3231564000000002"
"1.79","179","-0.228","-0.049","0.05","28.4760126","204.1449354","34.6066632"
"1.79","179","-0.004","0.041","-0.005","2.86479","-8.8235532","2.0053530000000004"
"1.79","179","-0.02","-0.024","-0.006","1.718874","-9.110032200000001","-0.1718874"
"1.79","179","0.043","0.034","-0.013","2.0053530000000004","2.9220857999999996","0.1718874"
"1.79","179","0.029","0.027","-0.053","-5.3285094","-7.6776372","-6.4171296"
"1.8","180","0.032","0.009","0.041","4.3544808","1.7761698","-3.8961144"
"1.8","180","-0.211","-0.024","0.13","32.085648000000006","199.102905","33.0023808"
"1.8","180","0.003","0.035","-0.004","2.5210152","-8.021412000000002","2.1772404"
"1.8","180","-0.02","-0.032","-0.003","1.4896908","-9.3965112","-0.2291832"
"1.8","180","0.034","0.033","-0.005","2.1772404","4.1252976","0.9740286"
"1.8","180","0.023","0.019","-0.049","-3.437748","-6.6463128000000005","-7.9641162"
"1.81","181","0.025","0.021","0.046","-0.2291832","1.432395","-5.6149884000000005"
"1.81","181","-0.205","-0.124","0.176","33.919113599999996","193.373325","38.0444112"
"1.81","181","0.005","0.03","-0.002","2.4064236","-7.2765666","2.0053530000000004"
"1.81","181","-0.02","-0.031","-0.002","1.2605076","-9.3965112","-0.1718874"
"1.81","181","0.021","0.03","-0.003","2.4637194","5.0993262","1.6615782000000001"
"1.81","181","0.022","0.007","-0.025","-1.8907614000000001","-6.2452422","-8.7662574"
"1.82","182","0.03","0.012","0.01","-4.6982556","1.432395","-6.4744254"
"1.82","182","-0.171","-0.192","0.138","31.741873200000004","183.0027852","42.97185"
"1.82","182","0.006","0.023","0.002","2.0626488","-6.4171296","1.7761698"
"1.82","182","-0.015","-0.025","0.003","1.0886202","-9.3965112","-0.3437748"
"1.82","182","0.008","0.026","0.0","2.6929026","5.844171599999999","2.0626488"
"1.82","182","0.014","-0.007","0.006","-0.4010706","-6.589017","-8.7662574"
"1.83","183","0.039","0.002","-0.021","-4.9847345999999995","1.432395","-6.5317212"
"1.83","183","-0.093","-0.21","0.043","27.501984","170.56959659999998","44.2323576"
"1.83","183","0.009","0.012","0.007","2.0626488","-5.786875800000001","1.5469865999999999"
"1.83","183","-0.004","-0.009","0.009","1.2605076","-9.3965112","-0.4010706"
"1.83","183","-0.003","0.025","0.008","2.86479","6.016058999999999","2.0626488"
"1.83","183","0.006","-0.005","0.029","-0.5156622","-5.844171599999999","-8.193299399999999"
"1.84","184","0.046","0.003","-0.038","-2.6929026","1.3178034","-6.2452422"
"1.84","184","0.015","-0.205","-0.132","23.8350528","155.0997306","41.539455"
"1.84","184","0.01","0.004","0.006","2.0053530000000004","-4.4117766","1.145916"
"1.84","184","0.009","0.011","0.008","1.4896908","-8.307891","-0.2291832"
"1.84","184","-0.006","0.02","0.006","2.7501984","5.72958","1.8334656"
"1.84","184","-0.003","-0.006","0.032","-1.7761698","-4.7555514","-7.3338624"
"1.85","185","0.052","0.007","-0.048","0.8021412","1.432395","-5.5003968"
"1.85","185","0.075","-0.25","-0.223","25.0955604","141.807105","32.486718599999996"
"1.85","185","0.014","0.002","-0.001","1.9480572","-3.8388186","0.9740286"
"1.85","185","0.022","0.027","0.005","1.145916","-6.703608600000001","-0.1718874"
"1.85","185","0.001","0.019","0.01","2.4064236","5.0420304","1.4896908"
"1.85","185","-0.019","-0.005","0.014","-2.7501984","-4.7555514","-6.703608600000001"
"1.86","186","0.05","0.014","-0.042","3.9534102000000004","1.8334656","-4.6982556"
"1.86","186","0.051","-0.254","-0.166","31.799169000000003","125.36321040000001","22.459953600000002"
"1.86","186","0.014","0.0","-0.007","2.1199445999999997","-3.5523396","0.859437"
"1.86","186","0.026","0.037","0.003","0.8021412","-5.2139178","0.0"
"1.86","186","0.004","0.015","0.016","1.9480572","4.068001799999999","1.145916"
"1.86","186","-0.024","0.006","-0.006","-3.2658606","-5.2712136","-6.4171296"
"1.87","187","0.034","0.032","-0.011","4.9847345999999995","2.1199445999999997","-4.1825934"
"1.87","187","0.009","-0.222","-0.055","32.773197599999996","109.8360486","16.2147114"
"1.87","187","0.017","0.0","-0.008","1.718874","-4.010706000000001","0.9167328"
"1.87","187","0.026","0.039","0.002","0.4010706","-4.068001799999999","0.0572958"
"1.87","187","0.002","0.011","0.017","1.3178034","3.0366774","0.859437"
"1.87","187","-0.02","0.009","-0.022","-2.7501984","-5.72958","-6.6463128000000005"
"1.8800000000000001","188","0.051","0.05","0.019","0.9740286","3.3231564000000002","-4.297185"
"1.8800000000000001","188","-0.022","-0.132","0.079","32.0283522","97.86122639999999","12.8342592"
"1.8800000000000001","188","0.019","0.003","-0.002","1.4896908","-4.5263682","0.859437"
"1.8800000000000001","188","0.018","0.041","0.001","0.2291832","-3.3231564000000002","0.3437748"
"1.8800000000000001","188","0.005","0.006","0.012","0.3437748","1.8334656","0.6875496"
"1.8800000000000001","188","-0.018","0.001","-0.034","-1.7761698","-7.2192708","-7.5057498"
"1.8900000000000001","189","0.087","0.048","0.016","-3.6096354","4.068001799999999","-4.2398891999999995"
"1.8900000000000001","189","0.037","-0.089","0.175","18.048177","86.80313699999999","11.9748222"
"1.8900000000000001","189","0.024","0.006","0.004","0.859437","-4.6409598","0.7448454"
"1.8900000000000001","189","0.011","0.039","0.001","0.2291832","-2.6929026","0.3437748"
"1.8900000000000001","189","0.012","0.007","0.005","-0.572958","0.572958","0.7448454"
"1.8900000000000001","189","-0.028","-0.017","-0.032","0.0","-10.1413566","-7.734933000000001"
"1.9000000000000001","190","0.094","0.052","0.012","-7.9641162","5.6149884000000005","-3.6669312"
"1.9000000000000001","190","0.098","-0.092","0.175","-9.0527364","71.906229","9.797581800000001"
"1.9000000000000001","190","0.028","0.006","0.008","0.1718874","-4.7555514","0.6875496"
"1.9000000000000001","190","-0.002","0.034","-0.002","0.4583664","-3.0366774","0.0572958"
"1.9000000000000001","190","0.021","0.007","-0.011","-1.4896908","-0.572958","0.9167328"
"1.9000000000000001","190","-0.037","-0.018","-0.023","1.0886202","-11.573751600000001","-7.3338624"
"1.9100000000000001","191","0.062","0.086","0.036","-14.9542038","6.9327917999999995","-3.5523396"
"1.9100000000000001","191","0.169","-0.16","0.107","-34.3201842","54.717489","8.8235532"
"1.9100000000000001","191","0.024","0.008","0.008","-0.1145916","-3.151269","0.8021412"
"1.9100000000000001","191","-0.011","0.024","-0.005","0.5156622","-3.8961144","-0.1145916"
"1.9100000000000001","191","0.039","0.006","-0.016","-1.8334656","-1.6042824","1.6042824"
"1.9100000000000001","191","-0.032","-0.001","-0.007","1.3178034","-12.6623718","-6.4171296"
"1.92","192","0.068","0.119","0.052","-27.043617599999997","8.2505952","-5.6722842"
"1.92","192","0.278","-0.124","-0.014","-57.2958","32.8877892","5.0993262"
"1.92","192","0.023","0.01","0.004","-0.3437748","-1.8334656","0.6875496"
"1.92","192","-0.017","0.006","-0.005","0.7448454","-4.583664","-0.4583664"
"1.92","192","0.051","0.003","-0.013","-1.7761698","-2.3491278","2.8074942000000003"
"1.92","192","-0.018","0.018","0.0","0.859437","-13.750992","-6.016058999999999"
"1.93","193","0.06","0.131","0.075","-44.633428200000004","9.453807000000001","-7.7922288"
"1.93","193","0.358","-0.078","-0.071","-75.7450476","10.0840608","-4.8128472"
"1.93","193","0.025","0.01","0.002","-0.1145916","-1.5469865999999999","0.5156622"
"1.93","193","-0.013","-0.005","0.001","0.8021412","-4.9847345999999995","-0.7448454"
"1.93","193","0.045","-0.007","-0.006","-1.6042824","-2.7501984","4.5263682"
"1.93","193","-0.004","0.03","0.0","0.5156622","-15.183387000000002","-6.703608600000001"
"1.94","194","0.064","0.104","0.023","-60.8481396","13.579104599999999","-9.453807000000001"
"1.94","194","0.309","-0.095","-0.072","-63.426450599999995","1.145916","-12.605076"
"1.94","194","0.021","0.02","0.004","0.6302538","-2.291832","0.286479"
"1.94","194","-0.005","-0.005","0.004","0.859437","-5.3858052","-0.9167328"
"1.94","194","0.022","-0.017","0.014","-1.6042824","-2.9793816","6.3598338"
"1.94","194","0.008","0.022","-0.007","0.1145916","-17.9335854","-8.880849"
"1.95","195","0.057","0.094","-0.068","-63.48374640000001","17.0741484","-9.3392154"
"1.95","195","0.113","-0.15","-0.006","-25.3247436","0.3437748","-15.527161800000002"
"1.95","195","0.007","0.031","0.003","1.0313244","-3.2085648","0.0572958"
"1.95","195","-0.003","-0.006","0.004","0.5156622","-5.3858052","-1.0886202"
"1.95","195","0.0","-0.025","0.023","-2.1772404","-3.3804521999999997","7.563045600000001"
"1.95","195","0.004","0.001","-0.019","1.7761698","-20.6837838","-10.313244"
"1.96","196","0.054","0.092","-0.148","-51.852699","18.1627686","-5.5003968"
"1.96","196","-0.064","-0.191","0.004","31.8564648","6.4171296","-10.1986524"
"1.96","196","-0.014","0.035","-0.002","1.718874","-4.8701430000000006","-0.1718874"
"1.96","196","-0.008","-0.01","-0.004","-0.1145916","-6.0733548","-1.2605076"
"1.96","196","-0.029","-0.026","0.028","-3.3804521999999997","-4.010706000000001","7.6776372"
"1.96","196","0.0","-0.019","-0.02","4.5263682","-22.173474600000002","-10.6570188"
"1.97","197","0.032","0.088","-0.164","-25.725814200000002","15.6417534","-0.5156622"
"1.97","197","-0.135","-0.183","-0.026","75.343977","14.495837400000001","-1.0886202"
"1.97","197","-0.047","0.038","-0.002","2.6356068","-9.167328","-0.1145916"
"1.97","197","-0.005","-0.01","-0.016","-0.572958","-8.2505952","-1.2032118"
"1.97","197","-0.052","-0.021","0.024","-4.9847345999999995","-5.0420304","6.3598338"
"1.97","197","-0.001","-0.019","0.0","7.734933000000001","-20.8556712","-8.9954406"
"1.98","198","-0.005","0.081","-0.131","-4.8128472","11.45916","2.2345362"
"1.98","198","-0.156","-0.197","-0.069","111.2684436","24.5226024","11.0580894"
"1.98","198","-0.067","0.039","-0.004","2.9793816","-13.292625600000001","0.0"
"1.98","198","0.001","-0.013","-0.016","-0.286479","-10.026765","-1.145916"
"1.98","198","-0.065","-0.013","0.02","-6.4744254","-6.4171296","3.7815228000000003"
"1.98","198","0.011","0.001","0.032","8.7089616","-17.6471064","-5.9587632"
"1.99","199","-0.024","0.088","-0.092","11.4018642","4.5263682","4.010706000000001"
"1.99","199","-0.154","-0.225","-0.089","121.2952086","28.5906042","17.7044022"
"1.99","199","-0.074","0.048","-0.009","3.6669312","-18.7930224","0.5156622"
"1.99","199","0.012","-0.022","-0.005","0.0572958","-11.0007936","-0.9740286"
"1.99","199","-0.062","-0.002","0.007","-7.563045600000001","-8.021412000000002","-0.1145916"
"1.99","199","0.041","0.02","0.061","7.448454","-12.4904844","-2.5210152"
"2.0","200","-0.043","0.089","-0.028","21.485925","-5.6722842","4.1252976"
"2.0","200","-0.175","-0.259","-0.065","106.570188","28.934379","22.2880662"
"2.0","200","-0.071","0.055","-0.011","4.6982556","-23.3193906","1.0886202"
"2.0","200","0.021","-0.021","0.005","0.1145916","-10.7143146","-0.8021412"
"2.0","200","-0.044","0.007","-0.008","-8.021412000000002","-9.6256944","-4.9274388"
"2.0","200","0.077","0.022","0.075","5.3285094","-6.302538","0.0"
"2.0100000000000002","201","-0.054","0.074","0.001","20.8556712","-13.464512999999998","3.0939731999999998"
"2.0100000000000002","201","-0.195","-0.284","-0.068","73.338624","26.4706596","24.178827599999998"
"2.0100000000000002","201","-0.055","0.061","-0.015","5.6722842","-26.1841806","1.4896908"
"2.0100000000000002","201","0.023","-0.014","0.013","0.1718874","-9.5683986","-0.4010706"
"2.0100000000000002","201","-0.02","0.016","-0.023","-7.6776372","-10.7143146","-9.5683986"
"2.0100000000000002","201","0.107","0.021","0.065","3.0939731999999998","-0.859437","1.145916"
"2.02","202","-0.065","0.042","0.01","14.839612200000001","-21.6005166","1.9480572"
"2.02","202","-0.192","-0.287","-0.101","41.596750799999995","24.350715","20.3973048"
"2.02","202","-0.025","0.062","-0.015","6.016058999999999","-26.929025999999997","1.7761698"
"2.02","202","0.015","-0.01","0.017","-0.1145916","-7.734933000000001","-0.3437748"
"2.02","202","0.009","0.024","-0.044","-6.4171296","-11.0580894","-13.521808799999999"
"2.02","202","0.118","0.007","0.035","1.0313244","3.7815228000000003","0.7448454"
"2.0300000000000002","203","-0.078","0.001","0.002","5.72958","-29.6219286","0.4010706"
"2.0300000000000002","203","-0.177","-0.317","-0.091","10.4851314","20.626488","12.7769634"
"2.0300000000000002","203","0.012","0.06","-0.011","5.786875800000001","-25.1528562","1.8907614000000001"
"2.0300000000000002","203","0.005","-0.003","0.014","-0.286479","-6.703608600000001","-0.4010706"
"2.0300000000000002","203","0.028","0.028","-0.061","-4.2398891999999995","-10.5424272","-16.157415599999997"
"2.0300000000000002","203","0.098","-0.01","-0.002","-2.1199445999999997","7.9641162","-0.6875496"
"2.04","204","-0.078","-0.025","0.008","-2.5210152","-37.24227","-1.0886202"
"2.04","204","-0.152","-0.318","-0.041","-6.8182002","16.673077799999998","3.2658606"
"2.04","204","0.045","0.057","-0.017","5.6722842","-21.1421502","1.8334656"
"2.04","204","-0.004","0.002","0.003","-0.286479","-6.1306506","-0.5156622"
"2.04","204","0.038","0.034","-0.059","-1.3750992","-9.110032200000001","-17.4179232"
"2.04","204","0.061","-0.002","-0.032","-3.437748","9.8548776","-1.8907614000000001"
"2.05","205","-0.059","-0.052","0.029","-6.3598338","-41.7686382","-2.7501984"
"2.05","205","-0.187","-0.297","0.033","-18.1627686","14.2666542","-2.9793816"
"2.05","205","0.059","0.048","-0.021","6.9900876","-15.183387000000002","1.3178034"
"2.05","205","-0.011","0.011","-0.006","-0.1145916","-6.4171296","-0.572958"
"2.05","205","0.034","0.037","-0.052","1.9480572","-6.760904399999999","-17.3606274"
"2.05","205","0.015","0.009","-0.05","-3.4950438","11.688343199999998","-2.6929026"
"2.06","206","-0.031","-0.101","0.037","-7.2765666","-43.6593996","-4.583664"
"2.06","206","-0.225","-0.27","0.052","-25.8977016","13.006146600000001","-2.86479"
"2.06","206","0.062","0.027","-0.018","7.906820400000001","-9.912173399999999","0.572958"
"2.06","206","-0.007","0.023","-0.009","0.2291832","-6.1306506","-0.6302538"
"2.06","206","0.019","0.038","-0.052","5.3285094","-4.068001799999999","-16.673077799999998"
"2.06","206","-0.018","0.012","-0.052","-3.151269","13.2353298","-2.6929026"
"2.07","207","-0.015","-0.133","0.022","-5.0420304","-42.5707794","-6.9900876"
"2.07","207","-0.233","-0.272","-0.016","-24.0069402","13.521808799999999","0.3437748"
"2.07","207","0.064","0.007","-0.012","8.7089616","-4.1825934","-0.2291832"
"2.07","207","0.0","0.03","-0.007","0.3437748","-4.9274388","-0.572958"
"2.07","207","0.0","0.041","-0.042","8.6516658","-1.3178034","-15.813640800000002"
"2.07","207","-0.036","0.012","-0.045","-1.8907614000000001","12.891555","-1.8907614000000001"
"2.08","208","0.008","-0.15","-0.007","-0.859437","-39.7632852","-8.479778399999999"
"2.08","208","-0.206","-0.301","-0.103","-15.527161800000002","13.9801752","2.8074942000000003"
"2.08","208","0.056","-0.003","-0.005","10.4278356","1.8907614000000001","-1.0313244"
"2.08","208","0.01","0.04","-0.001","0.0","-2.7501984","-0.4583664"
"2.08","208","-0.019","0.042","-0.028","11.688343199999998","1.0886202","-15.0687954"
"2.08","208","-0.041","0.01","-0.031","-0.5156622","12.089413799999999","-0.572958"
"2.09","209","0.031","-0.164","-0.026","3.437748","-34.8358464","-8.479778399999999"
"2.09","209","-0.153","-0.339","-0.137","3.5523396","11.4018642","5.0993262"
"2.09","209","0.04","-0.014","0.0","11.3445684","6.1879463999999995","-1.432395"
"2.09","209","0.017","0.045","0.002","-0.3437748","0.0","-0.286479"
"2.09","209","-0.031","0.04","-0.017","14.2093584","3.2085648","-14.4385416"
"2.09","209","-0.041","0.004","-0.017","0.4583664","10.886202","0.6875496"
"2.1","210","0.046","-0.161","-0.031","5.5003968","-28.934379","-7.563045600000001"
"2.1","210","-0.108","-0.334","-0.145","21.0275586","6.4744254","7.3338624"
"2.1","210","0.046","-0.022","0.003","11.0580894","10.6570188","-2.2345362"
"2.1","210","0.019","0.046","0.01","-0.6875496","1.9480572","-0.1145916"
"2.1","210","-0.041","0.041","0.003","15.9282324","4.6409598","-13.9228794"
"2.1","210","-0.054","0.01","-0.007","1.3750992","9.6829902","1.432395"
"2.11","211","0.05","-0.149","-0.016","5.5576926","-22.91832","-6.1879463999999995"
"2.11","211","-0.058","-0.307","-0.145","33.346155599999996","0.9167328","8.6516658"
"2.11","211","0.046","-0.023","0.009","9.5111028","13.6936962","-2.86479"
"2.11","211","0.017","0.042","0.013","-1.145916","3.6669312","0.1145916"
"2.11","211","-0.04","0.042","0.027","16.8449652","5.5576926","-13.349921400000001"
"2.11","211","-0.068","0.022","0.0","2.0053530000000004","7.9641162","1.7761698"
"2.12","212","0.049","-0.127","0.006","3.724227","-16.386598799999998","-5.0993262"
"2.12","212","-0.015","-0.313","-0.148","42.97185","-5.844171599999999","8.9954406"
"2.12","212","0.043","-0.027","0.015","7.3338624","16.7876694","-2.86479"
"2.12","212","0.011","0.032","0.004","-1.145916","4.583664","0.4010706"
"2.12","212","-0.045","0.041","0.047","16.902261","6.0733548","-12.605076"
"2.12","212","-0.064","0.028","0.003","2.4637194","5.786875800000001","1.432395"
"2.13","213","0.053","-0.1","0.003","-0.3437748","-8.8235532","-4.5263682"
"2.13","213","-0.021","-0.233","-0.131","46.295006400000005","-11.745638999999999","7.5057498"
"2.13","213","0.038","-0.032","0.017","4.4117766","18.7930224","-2.7501984"
"2.13","213","0.005","0.024","0.0","-0.4583664","4.8128472","0.2291832"
"2.13","213","-0.055","0.042","0.051","15.9282324","6.0733548","-11.745638999999999"
"2.13","213","-0.062","0.022","0.0","2.291832","2.9220857999999996","0.859437"
"2.14","214","0.064","-0.088","-0.025","-3.724227","-2.9793816","-3.3804521999999997"
"2.14","214","-0.024","-0.21","-0.075","44.8626114","-15.699049200000001","5.6149884000000005"
"2.14","214","0.031","-0.031","0.017","2.291832","19.1367972","-2.6356068"
"2.14","214","0.0","0.025","0.001","-0.5156622","4.9274388","-0.1145916"
"2.14","214","-0.059","0.04","0.044","14.152062599999999","5.5576926","-10.8289062"
"2.14","214","-0.058","0.015","-0.004","3.3804521999999997","0.1145916","0.6875496"
"2.15","215","0.069","-0.08","-0.066","-3.8388186","3.0366774","-1.0886202"
"2.15","215","-0.045","-0.166","0.009","39.190327200000006","-18.6784308","4.068001799999999"
"2.15","215","0.017","-0.032","0.015","0.7448454","17.7044022","-2.6356068"
"2.15","215","-0.006","0.018","0.003","-0.8021412","4.9847345999999995","-0.5156622"
"2.15","215","-0.061","0.04","0.05","12.089413799999999","4.6409598","-9.912173399999999"
"2.15","215","-0.054","0.011","-0.006","3.5523396","-1.7761698","0.572958"
"2.16","216","0.062","-0.065","-0.087","-0.1718874","7.161975","1.7761698"
"2.16","216","-0.034","-0.175","0.072","29.564632800000002","-20.798375399999998","1.3750992"
"2.16","216","0.009","-0.032","0.016","-0.6875496","15.527161800000002","-2.6929026"
"2.16","216","-0.01","0.006","0.001","-1.6042824","4.2398891999999995","-0.6302538"
"2.16","216","-0.06","0.042","0.051","9.8548776","3.437748","-8.9954406"
"2.16","216","-0.044","0.005","-0.013","4.1825934","-2.8074942000000003","0.4583664"
"2.17","217","0.038","-0.049","-0.074","4.1252976","9.797581800000001","4.1825934"
"2.17","217","-0.041","-0.162","0.112","19.938938399999998","-23.491277999999998","1.7761698"
"2.17","217","0.003","-0.03","0.018","-2.0053530000000004","12.605076","-2.6356068"
"2.17","217","-0.008","-0.004","-0.004","-2.2345362","2.7501984","-0.5156622"
"2.17","217","-0.056","0.039","0.032","7.2192708","1.8334656","-8.136003599999999"
"2.17","217","-0.025","0.001","-0.013","5.72958","-3.0366774","0.5156622"
"2.18","218","0.022","-0.025","-0.033","6.4744254","11.9175264","6.1306506"
"2.18","218","-0.028","-0.176","0.093","10.3705398","-25.4393352","3.8388186"
"2.18","218","-0.004","-0.028","0.013","-2.3491278","8.59437","-2.4637194"
"2.18","218","-0.002","-0.01","-0.002","-2.1199445999999997","1.432395","-0.4583664"
"2.18","218","-0.05","0.04","0.022","4.8128472","0.1718874","-7.3911582000000005"
"2.18","218","-0.009","0.0","-0.004","5.9587632","-2.578311","0.286479"
"2.19","219","0.03","-0.004","0.005","3.724227","13.865583599999999","6.1306506"
"2.19","219","-0.023","-0.218","0.043","9.167328","-28.8197874","5.9014674"
"2.19","219","-0.009","-0.02","0.009","-2.4637194","5.0993262","-2.0053530000000004"
"2.19","219","0.009","-0.009","0.001","-1.7761698","1.0886202","-0.2291832"
"2.19","219","-0.043","0.04","0.018","2.6929026","-1.3750992","-6.6463128000000005"
"2.19","219","-0.001","0.003","0.003","5.786875800000001","-3.2658606","0.286479"
"2.2","220","0.038","0.003","0.003","-1.0313244","14.9542038","5.3858052"
"2.2","220","-0.001","-0.247","-0.024","15.756345000000001","-34.950438","6.589017"
"2.2","220","-0.016","-0.012","0.0","-2.9220857999999996","1.6042824","-1.6042824"
"2.2","220","0.021","-0.008","0.0","-1.432395","2.1199445999999997","-0.0572958"
"2.2","220","-0.037","0.041","0.025","0.859437","-2.9220857999999996","-5.786875800000001"
"2.2","220","0.0","0.013","0.004","5.6722842","-4.068001799999999","0.4583664"
"2.21","221","0.04","0.005","-0.022","-4.297185","15.469866000000001","4.3544808"
"2.21","221","0.026","-0.265","-0.066","24.2934192","-40.6227222","5.72958"
"2.21","221","-0.031","-0.006","-0.004","-2.9793816","-1.9480572","-1.2605076"
"2.21","221","0.021","-0.014","-0.003","-1.432395","3.0939731999999998","0.0"
"2.21","221","-0.03","0.04","0.022","-0.6875496","-4.1825934","-4.8128472"
"2.21","221","-0.003","0.013","0.005","5.9014674","-5.3285094","0.9167328"
"2.22","222","0.035","0.011","-0.058","-4.1825934","15.3552744","3.6669312"
"2.22","222","0.041","-0.279","-0.069","32.085648000000006","-45.779344200000004","3.2085648"
"2.22","222","-0.036","0.002","-0.002","-2.6356068","-5.0993262","-0.7448454"
"2.22","222","0.014","-0.016","-0.014","-1.432395","3.724227","0.0"
"2.22","222","-0.027","0.036","0.004","-2.0626488","-5.2712136","-3.5523396"
"2.22","222","-0.005","0.004","0.0","5.9014674","-6.4744254","1.2032118"
"2.23","223","0.027","0.01","-0.085","-0.4583664","15.0114996","3.6669312"
"2.23","223","0.027","-0.328","-0.018","41.1956802","-53.170502400000004","-1.0886202"
"2.23","223","-0.036","0.014","0.0","-2.5210152","-9.0527364","-0.2291832"
"2.23","223","-0.002","-0.022","-0.018","-1.3750992","3.4950438","-0.0572958"
"2.23","223","-0.024","0.034","-0.005","-3.0939731999999998","-6.0733548","-2.3491278"
"2.23","223","-0.014","-0.002","-0.005","6.1306506","-7.448454","1.8334656"
"2.24","224","0.018","0.012","-0.094","6.0733548","13.6936962","4.583664"
"2.24","224","-0.016","-0.204","0.075","38.674665000000005","-58.49901179999999","-3.7815228000000003"
"2.24","224","-0.037","0.019","-0.002","-2.2345362","-11.9175264","0.1145916"
"2.24","224","-0.014","-0.029","-0.015","-1.2032118","1.6042824","-0.0572958"
"2.24","224","-0.021","0.032","-0.007","-3.6669312","-6.6463128000000005","-1.2605076"
"2.24","224","-0.021","-0.002","-0.007","5.9587632","-7.906820400000001","2.6356068"
"2.25","225","0.003","0.023","-0.079","14.4385416","11.573751600000001","5.2139178"
"2.25","225","-0.035","-0.235","0.163","25.0382646","-63.9994086","-3.3804521999999997"
"2.25","225","-0.028","0.02","-0.008","-1.9480572","-13.6936962","0.3437748"
"2.25","225","-0.017","-0.029","-0.011","-1.3178034","-0.9740286","-0.286479"
"2.25","225","-0.016","0.033","-0.002","-3.8961144","-6.9327917999999995","-0.4010706"
"2.25","225","-0.015","0.0","-0.004","6.016058999999999","-7.3911582000000005","3.151269"
"2.2600000000000002","226","-0.014","0.04","-0.053","18.907614000000002","9.5683986","5.6722842"
"2.2600000000000002","226","-0.068","-0.255","0.206","8.880849","-70.9322004","0.6875496"
"2.2600000000000002","226","-0.012","0.025","-0.008","-2.1199445999999997","-15.3552744","0.2291832"
"2.2600000000000002","226","-0.015","-0.031","-0.005","-1.2605076","-3.0366774","-0.3437748"
"2.2600000000000002","226","-0.011","0.029","-0.002","-3.8961144","-7.1046792","0.1145916"
"2.2600000000000002","226","0.001","0.006","0.002","6.0733548","-5.9014674","3.3231564000000002"
"2.27","227","-0.025","0.061","-0.016","17.475219","7.9641162","6.3598338"
"2.27","227","-0.069","-0.28","0.151","-2.0053530000000004","-76.9482594","4.4117766"
"2.27","227","0.001","0.027","-0.002","-2.4064236","-15.985528200000001","0.0"
"2.27","227","-0.011","-0.027","0.0","-1.0313244","-3.8961144","-0.6302538"
"2.27","227","-0.006","0.025","0.004","-3.724227","-7.0473834","0.4583664"
"2.27","227","0.017","0.007","0.009","5.786875800000001","-4.297185","3.2085648"
"2.2800000000000002","228","-0.001","0.091","0.02","6.3598338","6.9900876","6.302538"
"2.2800000000000002","228","-0.048","-0.281","0.053","-4.6409598","-82.3340646","7.2192708"
"2.2800000000000002","228","0.012","0.025","0.003","-2.86479","-15.2979786","-0.1145916"
"2.2800000000000002","228","-0.005","-0.018","0.003","-1.145916","-4.3544808","-0.859437"
"2.2800000000000002","228","-0.005","0.023","0.016","-3.6096354","-6.6463128000000005","0.6875496"
"2.2800000000000002","228","0.027","0.009","0.013","4.9274388","-3.2658606","2.7501984"
"2.29","229","0.053","0.12","0.019","-10.4851314","6.589017","5.0993262"
"2.29","229","-0.02","-0.28","-0.01","0.6875496","-89.1522648","5.786875800000001"
"2.29","229","0.023","0.019","0.006","-3.6096354","-12.8342592","-0.5156622"
"2.29","229","-0.002","-0.011","0.002","-1.2605076","-5.3285094","-0.9740286"
"2.29","229","-0.003","0.02","0.015","-3.6669312","-6.0733548","0.6875496"
"2.29","229","0.033","-0.01","0.014","4.7555514","-2.578311","2.2345362"
"2.3000000000000003","230","0.089","0.121","-0.025","-24.751785599999998","6.875496","4.9274388"
"2.3000000000000003","230","-0.011","-0.275","0.0","8.8235532","-94.4234784","4.297185"
"2.3000000000000003","230","0.039","0.016","0.006","-3.6096354","-9.912173399999999","-0.7448454"
"2.3000000000000003","230","0.005","-0.003","-0.001","-1.2605076","-5.6722842","-0.859437"
"2.3000000000000003","230","0.0","0.017","0.007","-4.010706000000001","-5.3285094","0.6302538"
"2.3000000000000003","230","0.03","-0.031","0.014","5.0993262","-1.6615782000000001","2.4064236"
"2.31","231","0.072","0.104","-0.087","-31.741873200000004","7.563045600000001","7.2765666"
"2.31","231","-0.024","-0.265","0.031","14.896908","-100.1530584","4.068001799999999"
"2.31","231","0.044","0.015","0.002","-2.4637194","-6.4171296","-0.859437"
"2.31","231","0.009","0.006","-0.002","-1.2032118","-5.6722842","-0.572958"
"2.31","231","0.005","0.018","0.007","-4.297185","-4.3544808","0.572958"
"2.31","231","0.028","-0.032","0.01","5.3858052","-0.5156622","3.0366774"
"2.32","232","0.038","0.097","-0.132","-27.1009134","7.448454","9.8548776"
"2.32","232","-0.05","-0.251","0.069","17.18874","-107.60151239999999","4.4690724"
"2.32","232","0.038","0.015","-0.003","-1.6615782000000001","-1.6042824","-0.7448454"
"2.32","232","0.008","0.014","0.0","-1.2032118","-4.9847345999999995","-0.4583664"
"2.32","232","0.011","0.019","0.006","-4.583664","-3.3231564000000002","0.572958"
"2.32","232","0.022","-0.021","0.006","5.5576926","1.5469865999999999","3.8961144"
"2.33","233","0.008","0.099","-0.149","-14.7250206","6.589017","12.4904844"
"2.33","233","-0.083","-0.232","0.074","16.272007199999997","-112.9300218","6.3598338"
"2.33","233","0.025","0.015","-0.012","-0.859437","1.7761698","-0.7448454"
"2.33","233","0.004","0.018","0.003","-1.0313244","-5.0993262","-0.3437748"
"2.33","233","0.014","0.022","-0.001","-4.7555514","-2.1199445999999997","0.572958"
"2.33","233","0.016","-0.017","0.008","5.3858052","3.0939731999999998","4.3544808"
"2.34","234","-0.003","0.098","-0.094","2.6356068","4.010706000000001","16.7876694"
"2.34","234","-0.128","-0.207","0.032","13.808287799999999","-117.8001648","9.3392154"
"2.34","234","0.014","0.01","-0.01","-0.3437748","4.1252976","-0.9167328"
"2.34","234","0.0","0.021","0.007","-0.9740286","-4.9274388","-0.286479"
"2.34","234","0.012","0.024","-0.008","-4.6409598","-0.859437","0.6875496"
"2.34","234","0.009","-0.011","0.008","4.5263682","4.1252976","4.297185"
"2.35","235","-0.009","0.102","-0.014","10.1413566","1.4896908","17.8189938"
"2.35","235","-0.144","-0.195","-0.029","14.9542038","-120.607659","10.3705398"
"2.35","235","0.006","0.003","-0.002","0.0","6.016058999999999","-1.432395"
"2.35","235","-0.003","0.023","0.011","-1.145916","-4.2398891999999995","-0.4010706"
"2.35","235","0.006","0.027","-0.017","-4.3544808","0.286479","0.7448454"
"2.35","235","0.011","-0.004","0.008","3.437748","4.7555514","4.068001799999999"
"2.36","236","0.0","0.101","0.05","9.2819196","-1.718874","16.5011904"
"2.36","236","-0.136","-0.169","-0.072","20.225417399999998","-123.5870406","8.9381448"
"2.36","236","0.003","-0.006","0.006","-0.5156622","7.1046792","-1.8907614000000001"
"2.36","236","-0.006","0.02","0.01","-1.3750992","-3.5523396","-0.5156622"
"2.36","236","0.006","0.029","-0.023","-3.724227","1.2032118","0.6302538"
"2.36","236","0.009","-0.012","0.005","2.7501984","5.3285094","4.2398891999999995"
"2.37","237","0.013","0.086","0.086","0.5156622","-5.6149884000000005","14.32395"
"2.37","237","-0.136","-0.118","-0.045","25.1528562","-129.1447332","3.8961144"
"2.37","237","0.004","-0.023","0.013","-1.4896908","8.479778399999999","-2.4637194"
"2.37","237","-0.005","0.023","0.009","-1.4896908","-3.0939731999999998","-0.6302538"
"2.37","237","0.007","0.033","-0.024","-2.7501984","1.9480572","0.4010706"
"2.37","237","0.002","-0.023","0.005","2.8074942000000003","5.6149884000000005","4.7555514"
"2.38","238","0.019","0.052","0.085","-10.7716104","-10.026765","11.6310474"
"2.38","238","-0.14","-0.068","0.036","22.459953600000002","-132.8689602","-0.0572958"
"2.38","238","0.004","-0.032","0.007","-1.8334656","9.3965112","-2.6929026"
"2.38","238","-0.009","0.02","0.003","-1.6615782000000001","-2.291832","-0.5156622"
"2.38","238","0.017","0.037","-0.021","-1.5469865999999999","2.6356068","0.286479"
"2.38","238","-0.006","-0.017","0.003","2.5210152","5.9587632","5.2712136"
"2.39","239","0.011","0.026","0.066","-16.386598799999998","-13.178034","9.5683986"
"2.39","239","-0.178","-0.04","0.121","12.8342592","-137.1088494","-1.5469865999999999"
"2.39","239","0.009","-0.042","0.002","-2.4637194","10.0840608","-2.6929026"
"2.39","239","-0.007","0.016","0.0","-1.5469865999999999","-1.718874","-0.4010706"
"2.39","239","0.023","0.04","-0.015","-0.286479","3.2658606","0.572958"
"2.39","239","-0.013","0.005","0.001","2.3491278","6.6463128000000005","5.3858052"
"2.4","240","0.006","0.008","0.049","-16.7876694","-15.469866000000001","6.8182002"
"2.4","240","-0.221","-0.038","0.147","-0.0572958","-140.8330764","0.5156622"
"2.4","240","0.019","-0.05","-0.003","-3.2658606","10.313244","-2.291832"
"2.4","240","-0.003","0.013","0.0","-1.718874","-0.859437","-0.1718874"
"2.4","240","0.018","0.041","-0.004","0.859437","3.9534102000000004","1.2032118"
"2.4","240","-0.017","0.03","0.0","1.0313244","8.7089616","5.156622"
"2.41","241","0.016","-0.005","0.039","-13.349921400000001","-16.7303736","5.3858052"
"2.41","241","-0.239","-0.053","0.09","-7.6203414","-142.89572520000002","4.7555514"
"2.41","241","0.02","-0.054","-0.003","-3.724227","10.255948199999999","-2.0053530000000004"
"2.41","241","-0.005","0.0","0.0","-1.7761698","-1.145916","0.0"
"2.41","241","0.002","0.042","0.006","1.8334656","4.4690724","1.9480572"
"2.41","241","-0.016","0.033","-0.003","-0.3437748","12.605076","4.4690724"
"2.42","242","0.016","-0.02","0.032","-8.880849","-16.5011904","4.4117766"
"2.42","242","-0.227","-0.057","-0.008","-5.9014674","-144.385416","8.479778399999999"
"2.42","242","0.015","-0.05","0.002","-3.8961144","9.6829902","-1.8907614000000001"
"2.42","242","-0.006","-0.006","-0.005","-1.9480572","-1.718874","0.0"
"2.42","242","-0.012","0.04","0.012","2.4064236","4.6982556","2.578311"
"2.42","242","-0.004","0.028","0.0","-2.1199445999999997","14.782316400000001","3.3804521999999997"
"2.43","243","0.025","-0.029","0.029","-3.437748","-15.5844576","3.2085648"
"2.43","243","-0.194","-0.033","-0.098","4.8128472","-145.0156698","9.8548776"
"2.43","243","0.01","-0.047","0.013","-4.6982556","9.2819196","-1.718874"
"2.43","243","-0.007","-0.009","-0.009","-2.0053530000000004","-2.0626488","0.0"
"2.43","243","-0.023","0.04","0.017","2.6356068","4.5263682","2.86479"
"2.43","243","0.006","0.023","-0.004","-4.010706000000001","15.6417534","2.1199445999999997"
"2.44","244","0.049","-0.043","0.033","3.437748","-14.2093584","2.9220857999999996"
"2.44","244","-0.156","-0.003","-0.138","18.7357266","-145.244853","10.1413566"
"2.44","244","0.009","-0.048","0.019","-5.72958","9.167328","-1.6042824"
"2.44","244","-0.006","-0.011","-0.007","-2.4637194","-2.2345362","0.0"
"2.44","244","-0.035","0.038","0.02","2.5210152","4.010706000000001","2.6929026"
"2.44","244","0.005","0.019","-0.014","-1.7761698","14.2666542","1.3750992"
"2.45","245","0.067","-0.052","0.049","6.875496","-12.7769634","3.2085648"
"2.45","245","-0.164","0.034","-0.09","31.2835068","-147.4220934","6.0733548"
"2.45","245","0.01","-0.047","0.02","-6.9327917999999995","9.2246238","-1.718874"
"2.45","245","-0.008","-0.019","-0.006","-2.9220857999999996","-3.0366774","-0.1145916"
"2.45","245","-0.035","0.037","0.018","2.0053530000000004","2.9793816","2.0626488"
"2.45","245","-0.005","0.016","-0.011","1.0313244","11.9748222","2.0053530000000004"
"2.46","246","0.065","-0.053","0.067","7.563045600000001","-11.45916","2.291832"
"2.46","246","-0.2","0.055","0.046","37.6433406","-149.4274464","5.3858052"
"2.46","246","0.016","-0.044","0.016","-7.563045600000001","9.110032200000001","-1.7761698"
"2.46","246","-0.006","-0.021","-0.006","-2.9220857999999996","-4.3544808","0.0"
"2.46","246","-0.026","0.037","0.013","1.3750992","1.6615782000000001","1.3178034"
"2.46","246","-0.01","0.027","-0.006","1.432395","9.6256944","2.86479"
"2.47","247","0.062","-0.05","0.068","5.6722842","-9.0527364","1.718874"
"2.47","247","-0.218","0.084","0.147","30.7678446","-150.5733624","7.9641162"
"2.47","247","0.019","-0.037","0.012","-8.59437","8.2505952","-1.3750992"
"2.47","247","-0.001","-0.022","-0.004","-2.86479","-4.6409598","0.1145916"
"2.47","247","-0.014","0.035","0.011","0.6875496","0.286479","0.7448454"
"2.47","247","-0.011","0.032","-0.007","1.718874","7.906820400000001","3.7815228000000003"
"2.48","248","0.059","-0.05","0.062","3.8388186","-6.6463128000000005","1.0313244"
"2.48","248","-0.226","0.083","0.156","18.907614000000002","-150.5160666","13.178034"
"2.48","248","0.015","-0.033","0.005","-9.0527364","7.5057498","-0.859437"
"2.48","248","0.008","-0.017","-0.003","-2.6929026","-4.6409598","0.286479"
"2.48","248","-0.011","0.035","0.017","0.0572958","-0.7448454","0.7448454"
"2.48","248","-0.016","0.019","-0.005","3.3231564000000002","7.0473834","4.2398891999999995"
"2.49","249","0.049","-0.05","0.043","2.0626488","-3.8961144","0.572958"
"2.49","249","-0.214","0.079","0.09","9.453807000000001","-149.7139254","20.2827132"
"2.49","249","0.012","-0.027","-0.001","-9.0527364","5.844171599999999","-0.3437748"
"2.49","249","0.015","-0.006","0.0","-2.6929026","-3.9534102000000004","0.2291832"
"2.49","249","-0.013","0.032","0.015","-0.6302538","-1.6615782000000001","1.145916"
"2.49","249","-0.02","0.01","0.001","4.297185","6.4171296","4.010706000000001"
"2.5","250","0.041","-0.046","0.023","1.3750992","-1.2032118","0.4583664"
"2.5","250","-0.21","0.072","-0.004","8.078707799999998","-149.4274464","24.637194"
"2.5","250","0.004","-0.02","-0.002","-9.167328","3.724227","-0.286479"
"2.5","250","0.018","0.0","0.0","-3.151269","-3.151269","0.2291832"
"2.5","250","-0.019","0.028","0.015","-1.432395","-2.4637194","1.7761698"
"2.5","250","-0.012","0.01","0.006","3.7815228000000003","7.1046792","3.0366774"
"2.5100000000000002","251","0.053","-0.044","0.011","1.432395","0.572958","0.3437748"
"2.5100000000000002","251","-0.179","0.102","-0.142","14.610429","-149.255559","24.465306599999998"
"2.5100000000000002","251","0.0","-0.011","0.003","-9.6256944","1.3178034","-0.3437748"
"2.5100000000000002","251","0.01","0.007","0.001","-3.0366774","-1.5469865999999999","0.5156622"
"2.5100000000000002","251","-0.018","0.027","0.015","-2.291832","-3.151269","2.4064236"
"2.5100000000000002","251","-0.009","0.009","0.006","2.6356068","7.3911582000000005","2.0626488"
"2.52","252","0.072","-0.048","0.0","2.578311","1.8907614000000001","0.2291832"
"2.52","252","-0.157","0.124","-0.197","21.7151082","-149.14096740000002","18.8503182"
"2.52","252","-0.005","-0.004","0.003","-9.6829902","-0.5156622","-0.4583664"
"2.52","252","0.001","0.013","0.0","-3.0939731999999998","-0.286479","0.859437"
