AccX,AccY,AccZ,GyrX,GyrY,GyrZ
0.074,-0.378,0.042,0.2291832,0.4583664,-3.5523396
0.169,-0.299,0.61,2.9793816,1.5469866,-0.6302538
0,0,0,0.1718874,-0.9167328,0.4010706
0.004,-0.005,0.035,0.4010706,0.0572958,0.1145916
0.001,-0.096,0.151,2.6929026,3.6096354,0.4010706
0.063,0,-0.061,-0.1145916,-0.8021412,0
0.133,-0.315,0.018,2.9793816,-0.859437,-2.1199446
0.146,-0.24,0.572,0.4583664,-0.8021412,0.3437748
0,0,0,0.6302538,-1.145916,0.4583664
0.004,-0.006,0.037,0.4010706,-0.4583664,0.0572958
0.004,-0.093,0.152,1.7761698,1.3178034,-0.1718874
0.065,0.001,-0.066,-0.286479,-0.286479,0
0.133,-0.304,0.011,5.0420304,-1.2032118,-2.005353
0.151,-0.253,0.57,0.8021412,-0.7448454,-0.2291832
0,0,0,0.572958,-0.859437,0.4010706
0.006,-0.006,0.036,0.4583664,-0.2291832,0.1718874
0.007,-0.09,0.15,1.145916,-0.0572958,-0.5156622
0.063,0.001,-0.066,-0.572958,-0.4010706,0
0.133,-0.299,0.011,5.0420304,-1.2605076,-1.7761698
0.152,-0.254,0.564,1.718874,-0.6302538,-0.572958
0,0,0,0.6302538,-0.8021412,0.2291832
0.003,-0.004,0.035,0.4583664,0.1145916,0.1145916
0.009,-0.093,0.149,0.6875496,-0.9167328,-0.8021412
0.061,0,-0.064,-0.6302538,-0.7448454,-0.1145916
0.13,-0.292,0.018,3.437748,-1.6615782,-1.432395
0.151,-0.248,0.563,2.1772404,-0.3437748,-0.9167328
0,0,0,0.6875496,-0.7448454,0.2291832
0,-0.005,0.037,0.572958,0,0.1145916
0.009,-0.097,0.148,0.4010706,-1.3178034,-0.9167328
0.059,-0.002,-0.063,-0.4583664,-0.8021412,-0.0572958
0.134,-0.291,0.027,0,-1.5469866,-0.9740286
0.152,-0.245,0.568,2.1199446,-0.3437748,-1.3750992
0,0,0,0.6875496,-0.7448454,0.1718874
-0.004,-0.005,0.041,0.6302538,-0.2291832,0.1718874
0.009,-0.097,0.146,0.2291832,-1.5469866,-1.0313244
0.059,-0.003,-0.065,-0.286479,-1.0886202,-0.0572958
0.131,-0.295,0.031,-2.8074942,-1.6615782,-0.4583664
0.154,-0.239,0.571,1.8907614,-0.3437748,-1.8334656
0,0,0,0.572958,-0.5156622,0.2291832
-0.004,-0.006,0.04,0.5156622,-0.4583664,0.1718874
0.007,-0.094,0.145,0.1145916,-1.5469866,-1.145916
0.06,-0.003,-0.064,-0.286479,-0.9167328,-0.0572958
0.131,-0.295,0.037,-4.6409598,-1.4896908,0.0572958
0.153,-0.237,0.57,1.432395,-0.4583664,-2.6356068
0,0,0,0.572958,-0.4583664,0.1718874
0,-0.005,0.04,0.4583664,-0.4583664,0.0572958
0.005,-0.093,0.143,0,-1.3750992,-1.2605076
0.062,-0.005,-0.063,-0.2291832,-0.859437,-0.1145916
0.137,-0.3,0.039,-4.8128472,-1.2032118,0.3437748
0.153,-0.237,0.568,1.3178034,-0.4010706,-3.2085648
0,0,0,0.4583664,-0.3437748,0.2291832
0.002,-0.006,0.04,0.286479,-0.3437748,0.1145916
0.004,-0.09,0.141,-0.0572958,-1.2605076,-1.3178034
0.063,-0.003,-0.065,0,-0.5156622,-0.0572958
0.14,-0.306,0.04,-2.6929026,-0.8021412,0.4010706
0.151,-0.234,0.564,1.5469866,-0.4010706,-3.2658606
0,0,0,0.3437748,-0.6302538,0.2291832
0.003,-0.006,0.038,0.3437748,-0.4010706,0.1145916
0.005,-0.088,0.138,-0.1145916,-1.0313244,-1.2605076
0.062,-0.001,-0.063,0,0,0
0.14,-0.307,0.036,0.3437748,-0.859437,0.1718874
0.146,-0.229,0.564,1.9480572,-0.5156622,-3.151269
0,0,0,0.286479,-0.572958,0.2291832
0.002,-0.005,0.037,0.4010706,-0.3437748,0.1145916
0.005,-0.086,0.134,-0.1718874,-0.859437,-1.145916
0.06,-0.001,-0.061,0.0572958,0,0
0.142,-0.299,0.029,5.2139178,-0.6875496,-0.286479
0.148,-0.222,0.563,1.8907614,-0.4010706,-2.8074942
0,0,0,0.3437748,-0.4583664,0.286479
0.004,-0.005,0.034,0.4010706,-0.3437748,0.1145916
0.002,-0.084,0.132,-0.1718874,-0.6875496,-0.9167328
0.058,-0.001,-0.06,0.0572958,-0.1718874,0
0.145,-0.289,0.023,7.0473834,-0.572958,-0.7448454
0.147,-0.222,0.561,1.718874,-0.572958,-2.4064236
0,0,0,0.5156622,-0.3437748,0.2291832
0.004,-0.004,0.031,0.5156622,-0.2291832,0.2291832
0.001,-0.079,0.129,-0.2291832,-0.6302538,-0.6875496
0.054,-0.002,-0.06,-0.1718874,-0.1145916,0.0572958
0.144,-0.284,0.022,6.8182002,-0.3437748,-1.3750992
0.145,-0.222,0.555,1.6042824,-0.4583664,-1.6615782
0,0,0,0.4583664,-0.5156622,0.1145916
0.008,-0.003,0.029,0.2291832,-0.286479,0.286479
0.001,-0.079,0.125,-0.3437748,-0.5156622,-0.572958
0.052,-0.003,-0.057,-0.1718874,-0.572958,0
0.139,-0.274,0.02,4.583664,-0.4010706,-1.8334656
0.145,-0.222,0.554,1.7761698,-0.4583664,-0.8021412
0,0,0,0.4583664,-0.4010706,0.0572958
0.006,-0.005,0.027,0.1718874,-0.2291832,0.2291832
0.001,-0.077,0.122,-0.3437748,-0.5156622,-0.4010706
0.052,-0.004,-0.056,0,-1.0886202,0.1145916
0.139,-0.271,0.021,1.0886202,0,-2.1772404
0.144,-0.224,0.551,2.1772404,-0.2291832,-0.1145916
0,0,0,0.4010706,-0.5156622,0.0572958
0,-0.004,0.026,0.4583664,-0.1718874,0.1145916
0,-0.077,0.119,-0.4010706,-0.5156622,-0.286479
0.051,-0.002,-0.055,0,-1.0313244,0.1145916
0.14,-0.278,0.021,-2.0626488,0.2291832,-2.5210152
0.151,-0.224,0.548,2.9793816,-0.0572958,0.4583664
0,0,0,0.3437748,-0.3437748,0
-0.004,-0.002,0.028,0.4583664,-0.1145916,0.2291832
0.002,-0.08,0.117,-0.4010706,-0.572958,-0.1718874
0.054,0,-0.058,0,-1.2605076,0.1145916
0.133,-0.287,0.022,-3.8961144,0.572958,-2.7501984
0.154,-0.225,0.548,3.4950438,0.286479,0.5156622
0,0,0,0.4010706,-0.4583664,0.0572958
-0.003,-0.003,0.033,0.3437748,-0.572958,0.0572958
0.003,-0.078,0.116,-0.4010706,-0.6875496,-0.0572958
0.056,-0.001,-0.057,0,-1.145916,0.1145916
0.132,-0.298,0.024,-3.5523396,0.6302538,-2.6929026
0.156,-0.219,0.552,3.2658606,0.572958,0.2291832
0,0,0,0.4010706,-0.6302538,0
-0.001,-0.004,0.036,0.4583664,-0.9740286,0
0.005,-0.076,0.114,-0.4010706,-0.7448454,0.0572958
0.059,-0.001,-0.061,0.286479,-1.0313244,0.1145916
0.135,-0.301,0.026,-1.8907614,0.572958,-2.5210152
0.153,-0.217,0.556,2.1772404,0.6302538,-0.572958
0,0,0,0.3437748,-0.7448454,0.1145916
-0.001,-0.006,0.036,0.572958,-1.0313244,0
0.006,-0.074,0.112,-0.4583664,-0.8021412,0.1718874
0.059,-0.001,-0.061,0.1718874,-0.4583664,0.0572958
0.133,-0.313,0.024,2.0626488,0.4010706,-2.291832
0.151,-0.216,0.557,0.8021412,0.2291832,-1.432395
0,0,0,0.3437748,-0.9740286,0.2291832
0,-0.008,0.036,0.3437748,-0.9167328,0.0572958
0.008,-0.074,0.112,-0.5156622,-0.9167328,0.2291832
0.058,-0.001,-0.061,0.2291832,-0.7448454,0.1145916
0.127,-0.299,0.012,5.6722842,0,-1.9480572
0.15,-0.221,0.557,-0.2291832,0,-2.0626488
0,0,0,0.3437748,-0.9167328,0.2291832
0,-0.008,0.034,0.2291832,-0.7448454,0
0.01,-0.071,0.108,-0.572958,-0.9167328,0.2291832
0.057,-0.001,-0.062,0.0572958,-0.4583664,0.0572958
0.131,-0.284,0.011,5.6722842,-0.1145916,-1.6042824
0.148,-0.226,0.552,-0.1145916,0.2291832,-2.2345362
0,0,0,0.4010706,-0.7448454,0.1718874
0,-0.007,0.029,0.286479,-0.8021412,0.0572958
0.011,-0.072,0.106,-0.6302538,-0.9740286,0.1718874
0.055,-0.003,-0.06,0.0572958,-0.8021412,0
0.138,-0.283,0.017,3.2658606,-0.0572958,-1.432395
0.146,-0.225,0.546,0.6875496,0.6302538,-1.8334656
0,0,0,0.3437748,-0.6302538,0.0572958
0.001,-0.007,0.027,0.3437748,-0.8021412,0.0572958
0.01,-0.073,0.105,-0.6875496,-0.9167328,0.0572958
0.055,-0.006,-0.058,-0.0572958,-0.9740286,0
0.137,-0.276,0.018,0.1718874,0.0572958,-1.432395
0.144,-0.225,0.547,2.2345362,0.9167328,-0.9740286
0,0,0,0.286479,-0.572958,0.0572958
0.001,-0.006,0.024,0.5156622,-0.7448454,0
0.008,-0.073,0.102,-0.6302538,-0.9167328,-0.0572958
0.054,-0.004,-0.058,0,-1.145916,0.0572958
0.14,-0.273,0.012,-3.0939732,0.3437748,-1.6042824
0.144,-0.216,0.554,2.86479,1.3750992,-0.3437748
0,0,0,0.2291832,-0.4010706,0
0.002,-0.004,0.022,0.4583664,-0.5156622,0
0.005,-0.073,0.101,-0.572958,-0.9167328,-0.286479
0.055,-0.004,-0.054,0,-1.2605076,0
0.14,-0.288,0.017,-5.2712136,0.572958,-2.2345362
0.147,-0.212,0.559,2.3491278,1.432395,0.1145916
0,0,0,0.3437748,-0.4010706,-0.0572958
0.005,-0.002,0.02,0.6875496,-0.6875496,0.1145916
0.004,-0.07,0.1,-0.4010706,-0.9167328,-0.5156622
0.056,-0.002,-0.055,0.0572958,-1.2605076,-0.0572958
0.142,-0.3,0.02,-4.0680018,0.5156622,-2.6929026
0.155,-0.208,0.564,0.9740286,1.3178034,0.2291832
0,0,0,0.4010706,-0.286479,0
0.005,-0.002,0.019,0.8021412,-0.3437748,0.1718874
0.004,-0.068,0.1,-0.2291832,-0.9740286,-0.6302538
0.056,-0.001,-0.055,0,-1.145916,0
0.139,-0.304,0.018,-1.0313244,0.5156622,-3.2658606
0.154,-0.206,0.568,-0.5156622,0.8021412,0
0,0,0,0.4010706,-0.2291832,0.0572958
0.004,-0.002,0.023,0.6302538,-0.0572958,0.1718874
0.007,-0.064,0.096,-0.0572958,-1.0886202,-0.6875496
0.059,0,-0.055,0.0572958,-1.0313244,-0.1145916
0.137,-0.303,0.017,2.4064236,0.286479,-3.437748
0.154,-0.213,0.568,-1.6615782,0.4010706,-0.4583664
0,0,0,0.4583664,-0.2291832,0.0572958
0.004,-0.003,0.027,0.4583664,0,0.1145916
0.009,-0.063,0.096,0.0572958,-1.145916,-0.5156622
0.056,0.001,-0.054,0.2291832,-0.286479,-0.0572958
0.142,-0.302,0.009,6.1879464,0.3437748,-3.6096354
0.151,-0.222,0.567,-1.8907614,0,-0.859437
0,0,0,0.4010706,-0.3437748,0.1145916
-0.001,-0.005,0.029,0.4583664,-0.0572958,0.2291832
0.01,-0.064,0.093,0.1145916,-1.145916,-0.286479
0.053,0,-0.055,0,-0.1145916,-0.0572958
0.13,-0.289,0.005,6.7036086,-0.1145916,-3.3231564
0.143,-0.227,0.565,-0.5156622,0,-0.859437
0,0,0,0.4583664,-0.0572958,0.0572958
-0.002,-0.005,0.029,0.4583664,-0.1718874,0
0.01,-0.06,0.089,0.1718874,-1.145916,-0.1145916
0.05,-0.001,-0.054,-0.0572958,0,-0.0572958
0.13,-0.277,0.012,3.5523396,-0.2291832,-2.6356068
0.145,-0.226,0.559,1.0313244,-0.0572958,-0.572958
0,0,0,0.4010706,0.0572958,0
-0.003,-0.006,0.028,0.572958,-0.5156622,0
0.01,-0.055,0.089,0.2291832,-1.0313244,-0.0572958
0.051,-0.004,-0.051,0,-0.2291832,-0.0572958
0.137,-0.276,0.019,-1.3750992,-0.1145916,-2.0626488
0.144,-0.224,0.557,2.7501984,-0.1718874,-0.0572958
0,0,0,0.4010706,0.0572958,0
0,-0.005,0.029,0.4583664,-0.3437748,0
0.011,-0.062,0.084,0.1718874,-0.9167328,-0.1718874
0.052,-0.006,-0.051,0,0,-0.0572958
0.136,-0.283,0.019,-5.156622,0.286479,-1.4896908
0.14,-0.217,0.553,3.437748,-0.1718874,0.6302538
0,0,0,0.4583664,0.286479,0
0.003,-0.005,0.025,0.5156622,-0.1145916,0
0.01,-0.062,0.082,0.2291832,-0.8021412,-0.4010706
0.055,-0.006,-0.052,0,0.2291832,0
0.136,-0.297,0.015,-6.875496,0,-1.3750992
0.136,-0.21,0.554,2.7501984,-0.1145916,1.0886202
0,0,0,0.4583664,0.1718874,0
0.002,-0.002,0.025,0.6302538,0.1718874,0.0572958
0.008,-0.055,0.082,0.1718874,-0.6875496,-0.8021412
0.056,-0.005,-0.052,0.2291832,0.6875496,-0.0572958
0.138,-0.31,0.016,-4.9847346,-0.1145916,-1.6615782
0.14,-0.211,0.551,1.3750992,-0.1718874,1.3178034
0,0,0,0.4583664,0.286479,0
0.001,0,0.026,0.4010706,0.2291832,0.0572958
0.008,-0.049,0.084,0.0572958,-0.5156622,-1.145916
0.055,-0.002,-0.056,0.286479,1.2032118,-0.0572958
0.139,-0.312,0.016,-1.145916,-0.2291832,-2.0626488
0.145,-0.216,0.552,0.1718874,-0.0572958,1.432395
0,0,0,0.6302538,0.4010706,0.1145916
0.002,-0.001,0.026,0.4583664,0.0572958,0.1145916
0.007,-0.045,0.086,-0.1145916,-0.3437748,-1.3750992
0.053,0.002,-0.06,0.4010706,1.6042824,-0.0572958
0.14,-0.311,0.012,2.9793816,-0.1718874,-2.4064236
0.149,-0.22,0.553,-0.1718874,0,1.6615782
0,0,0,0.6302538,0.5156622,0.1145916
0.001,-0.003,0.024,0.3437748,0,0.0572958
0.006,-0.049,0.085,-0.4583664,-0.1718874,-1.432395
0.049,0.005,-0.061,0.1145916,1.2032118,0
0.136,-0.304,0.008,5.5003968,-0.4010706,-2.6356068
0.152,-0.22,0.551,-0.1145916,0,1.4896908
0,0,0,0.6875496,0.6302538,0.1145916
0.001,-0.007,0.024,0.2291832,0.1145916,0.1145916
0.002,-0.056,0.084,-0.859437,0,-1.3178034
0.046,0.002,-0.058,-0.0572958,0.4583664,0.0572958
0.139,-0.292,0.009,4.9274388,-0.1718874,-2.6929026
0.151,-0.221,0.552,0.0572958,0.1718874,1.3178034
0,0,0,0.6875496,0.6302538,0
0.003,-0.008,0.021,0.4583664,0,0.1718874
-0.003,-0.061,0.083,-1.145916,0,-1.0313244
0.044,-0.001,-0.056,-0.1145916,-0.1145916,0.1145916
0.141,-0.29,0.009,2.2345362,0,-2.7501984
0.151,-0.224,0.552,0.3437748,-0.0572958,1.0313244
0,0,0,0.6302538,0.5156622,0
0,-0.007,0.02,0.5156622,0.0572958,0.1145916
-0.005,-0.063,0.081,-1.3178034,0,-0.8021412
0.043,-0.007,-0.049,-0.1145916,-0.4583664,0.0572958
0.14,-0.293,0.013,-0.9740286,-0.0572958,-2.7501984
0.149,-0.222,0.551,0.286479,-0.2291832,0.8021412
0,0,0,0.4010706,0.286479,0
-0.004,-0.007,0.021,0.6302538,-0.0572958,0.0572958
-0.005,-0.067,0.082,-1.3750992,-0.1718874,-0.572958
0.044,-0.012,-0.046,0,-0.6875496,0.0572958
0.139,-0.295,0.017,-3.5523396,-0.0572958,-2.6356068
0.145,-0.217,0.555,0,-0.5156622,0.6875496
0,0,0,0.4010706,0,0
-0.002,-0.006,0.024,0.7448454,-0.572958,0.0572958
-0.003,-0.066,0.083,-1.3178034,-0.5156622,-0.4010706
0.048,-0.013,-0.049,0.286479,-0.4010706,0
0.135,-0.299,0.021,-5.7868758,0.0572958,-2.3491278
0.143,-0.216,0.555,-0.7448454,-0.8021412,0.7448454
0,0,0,0.0572958,-0.2291832,0
-0.003,-0.004,0.023,0.8021412,-0.572958,-0.1145916
-0.001,-0.064,0.083,-1.0886202,-0.8021412,-0.3437748
0.05,-0.009,-0.051,0.4583664,-0.4583664,0
0.134,-0.312,0.028,-7.0473834,0.5156622,-1.6615782
0.143,-0.216,0.557,-1.7761698,-1.2032118,0.7448454
0,0,0,0.0572958,-0.5156622,0.0572958
-0.003,0,0.023,0.6302538,-0.8021412,-0.2291832
0.001,-0.061,0.084,-0.859437,-1.0886202,-0.286479
0.053,-0.005,-0.053,0.5156622,-0.3437748,0
0.133,-0.32,0.03,-5.7868758,0.4583664,-1.145916
0.141,-0.219,0.558,-2.3491278,-1.432395,0.9167328
0,0,0,0.0572958,-0.572958,0.1145916
0.002,-0.003,0.023,0.2291832,-0.6875496,-0.1145916
0.006,-0.059,0.084,-0.572958,-1.3178034,-0.3437748
0.054,0,-0.054,0.4583664,-0.2291832,0
0.135,-0.325,0.029,-2.6356068,0.572958,-0.8021412
0.141,-0.222,0.56,-2.3491278,-1.718874,1.145916
0,0,0,0.1718874,-0.6302538,0.0572958
0.004,-0.002,0.02,0.1718874,-0.3437748,-0.1145916
0.009,-0.055,0.084,-0.286479,-1.3750992,-0.3437748
0.054,0.003,-0.053,0.3437748,0.0572958,0
0.136,-0.321,0.026,1.2605076,0.3437748,-0.2291832
0.14,-0.223,0.56,-1.8907614,-1.718874,1.0886202
0,0,0,0.3437748,-0.5156622,0.1145916
0.006,0,0.018,0.2291832,-0.1718874,-0.0572958
0.012,-0.053,0.084,-0.1145916,-1.2605076,-0.286479
0.052,0.004,-0.055,0.3437748,0.1145916,0
0.137,-0.316,0.024,3.4950438,0,0.1718874
0.144,-0.224,0.557,-1.2032118,-1.8907614,0.859437
0,0,0,0.3437748,-0.286479,0
0.007,0,0.018,0.286479,-0.5156622,0.0572958
0.011,-0.051,0.084,-0.0572958,-1.0886202,-0.2291832
0.047,0.002,-0.057,0.2291832,0.4583664,0.0572958
0.137,-0.306,0.025,3.3804522,-0.1718874,0.6302538
0.144,-0.221,0.556,-1.145916,-1.8334656,0.572958
0,0,0,0.4010706,-0.286479,0
0.005,0,0.022,0.4583664,-0.5156622,0.1145916
0.008,-0.056,0.08,-0.0572958,-0.7448454,-0.0572958
0.043,0,-0.054,0.4010706,0.2291832,0.2291832
0.141,-0.3,0.029,0.6302538,-0.0572958,1.3750992
0.141,-0.219,0.56,-1.6042824,-2.0626488,0.1718874
0,0,0,0.4010706,-0.3437748,0
0.001,-0.004,0.027,0.4583664,-0.6302538,0.0572958
0.006,-0.052,0.08,-0.1145916,-0.4583664,0
0.043,0,-0.053,0.4583664,-0.1145916,0.3437748
0.136,-0.294,0.028,-2.578311,0.0572958,1.8907614
0.145,-0.219,0.561,-2.005353,-2.5210152,-0.1145916
0,0,0,0.1145916,-0.1718874,-0.1145916
-0.002,-0.006,0.029,0.5156622,-0.7448454,-0.0572958
0.003,-0.048,0.078,-0.1718874,-0.1718874,0.0572958
0.044,0,-0.055,0.572958,-0.3437748,0.5156622
0.137,-0.293,0.028,-5.9014674,0.5156622,2.291832
0.144,-0.225,0.559,-1.5469866,-2.8074942,-0.1718874
0,0,0,0.2291832,-0.286479,-0.1145916
-0.005,-0.007,0.031,0.7448454,-1.0313244,-0.1718874
0.001,-0.056,0.075,-0.1718874,0,0.2291832
0.048,-0.002,-0.054,0.4010706,-0.572958,0.4010706
0.141,-0.306,0.029,-7.3338624,0.8021412,2.291832
0.146,-0.229,0.55,-0.0572958,-2.7501984,0
0,0,0,0.2291832,-0.286479,-0.0572958
-0.002,-0.006,0.028,0.8021412,-0.859437,-0.3437748
0,-0.056,0.074,-0.0572958,0.0572958,0.3437748
0.053,-0.003,-0.055,0.6875496,-0.6875496,0.286479
0.136,-0.312,0.027,-5.6722842,1.0313244,2.0626488
0.148,-0.226,0.542,1.3750992,-2.7501984,0.4583664
0,0,0,0.2291832,-0.4010706,0
0.001,-0.005,0.02,0.7448454,-0.4583664,-0.2291832
-0.003,-0.054,0.072,0,0.0572958,0.3437748
0.055,-0.001,-0.054,0.4583664,-0.286479,0.0572958
0.134,-0.319,0.029,-2.1199446,0.859437,1.718874
0.146,-0.219,0.54,1.5469866,-3.0366774,0.6875496
0,0,0,0.1718874,-0.4583664,-0.0572958
0.004,-0.004,0.012,0.572958,-0.2291832,-0.2291832
0,-0.055,0.071,0.2291832,0,0.286479
0.055,-0.002,-0.054,0.1718874,0.1718874,-0.0572958
0.135,-0.312,0.024,3.3231564,1.0313244,1.4896908
0.146,-0.213,0.538,0.4583664,-3.4950438,0.9740286
0,0,0,0.1718874,-0.5156622,0
0.002,-0.004,0.01,0.5156622,-0.1718874,-0.1145916
0.005,-0.055,0.07,0.5156622,0,0.286479
0.052,-0.003,-0.053,0.0572958,0.286479,-0.1145916
0.133,-0.303,0.015,5.72958,0.859437,1.5469866
0.142,-0.217,0.536,-1.0313244,-3.6669312,1.2032118
0,0,0,0.1718874,-0.572958,-0.1145916
0,-0.003,0.01,0.572958,-0.3437748,0
0.006,-0.052,0.07,0.8021412,0,0.4010706
0.051,-0.004,-0.052,-0.1145916,0.1145916,0.1145916
0.128,-0.289,0.013,5.443101,0.9740286,2.0626488
0.141,-0.223,0.531,-2.005353,-3.7815228,1.4896908
0,0,0,0.2291832,-0.859437,-0.1145916
0,-0.001,0.012,0.5156622,-0.1718874,0
0.006,-0.051,0.069,1.0886202,0,0.572958
0.047,-0.004,-0.05,0,-0.2291832,0.1718874
0.131,-0.277,0.01,2.4637194,1.145916,2.86479
0.147,-0.23,0.52,-2.1199446,-3.724227,1.8334656
0,0,0,0.2291832,-0.8021412,-0.1718874
0.001,0,0.016,0.5156622,-0.3437748,-0.1718874
0.006,-0.05,0.069,1.3178034,0.0572958,0.6302538
0.043,-0.004,-0.049,-0.0572958,-0.2291832,0.3437748
0.129,-0.272,0.006,-2.1199446,1.3750992,3.4950438
0.153,-0.231,0.514,-1.2605076,-3.4950438,2.1772404
0,0,0,0.286479,-0.7448454,-0.1145916
0.003,0,0.018,0.3437748,-0.286479,-0.286479
0.002,-0.046,0.068,1.4896908,0.1718874,0.6875496
0.043,-0.005,-0.05,0,-0.0572958,0.1718874
0.134,-0.283,0.006,-5.5003968,1.2032118,3.6096354
0.152,-0.231,0.512,0,-2.9793816,2.578311
0,0,0,0.2291832,-0.5156622,-0.1145916
0.003,-0.003,0.019,0.286479,-0.1145916,-0.286479
0.002,-0.044,0.068,1.5469866,0.2291832,0.572958
0.045,-0.003,-0.051,0.286479,0,0.1145916
0.135,-0.293,0.004,-5.6722842,1.2605076,3.5523396
0.155,-0.228,0.513,1.7761698,-2.1199446,2.86479
0,0,0,0.1145916,-0.286479,-0.0572958
0.003,-0.003,0.019,0.1145916,0.3437748,-0.1145916
0.003,-0.044,0.066,1.4896908,0.286479,0.572958
0.047,-0.002,-0.053,0.572958,-0.1145916,0.1718874
0.132,-0.295,0.001,-3.724227,0.6302538,3.0366774
0.152,-0.221,0.517,2.1772404,-1.4896908,2.86479
0,0,0,0.0572958,-0.1145916,-0.1145916
0.002,-0.002,0.015,0.1718874,0.0572958,0
0.006,-0.044,0.066,1.432395,0.3437748,0.572958
0.05,-0.002,-0.052,0.6302538,-0.1145916,0.1718874
0.132,-0.303,0.003,-0.572958,0.4583664,2.6356068
0.152,-0.215,0.52,1.5469866,-1.3178034,2.5210152
0,0,0,0.0572958,-0.1145916,-0.2291832
0.003,0,0.009,0.3437748,0.0572958,0.0572958
0.007,-0.043,0.064,1.3178034,0.4583664,0.6875496
0.049,-0.001,-0.049,0.5156622,0.286479,0.2291832
0.133,-0.296,0.007,3.0939732,-0.0572958,2.4637194
0.152,-0.21,0.519,0,-1.3178034,2.1199446
0,0,0,0,0,-0.3437748
0.002,0.001,0.009,0.286479,0.1145916,0.1145916
0.006,-0.045,0.062,1.3178034,0.6302538,0.9167328
0.048,-0.002,-0.047,0.4583664,0.5156622,0.0572958
0.135,-0.291,0.004,5.5576926,-0.3437748,2.291832
0.149,-0.211,0.52,-2.005353,-1.7761698,1.5469866
0,0,0,-0.1145916,0.1145916,-0.3437748
-0.004,-0.002,0.012,0.3437748,0.286479,0
0.004,-0.047,0.062,1.2605076,0.7448454,1.0886202
0.045,-0.001,-0.046,0.572958,0.4583664,0.1145916
0.129,-0.28,-0.006,6.016059,-0.572958,2.6356068
0.151,-0.214,0.518,-3.3231564,-2.0626488,1.2605076
0,0,0,-0.1145916,0.1718874,-0.4010706
-0.007,-0.003,0.012,0.3437748,0,-0.1145916
0.004,-0.047,0.061,1.2605076,0.859437,1.145916
0.041,-0.004,-0.047,0.6302538,0.7448454,0.1718874
0.123,-0.271,-0.006,3.724227,-0.8021412,3.0366774
0.147,-0.223,0.52,-3.5523396,-2.2345362,1.4896908
0,0,0,0.0572958,0.1145916,-0.286479
-0.006,-0.003,0.017,0.2291832,-0.3437748,-0.286479
0.006,-0.046,0.062,1.2032118,0.9167328,1.0886202
0.04,-0.005,-0.047,0.8021412,0.6302538,0.1145916
0.134,-0.27,0.001,-0.6875496,-0.8021412,3.5523396
0.145,-0.229,0.52,-2.291832,-1.718874,1.7761698
0,0,0,0,0.286479,-0.286479
-0.002,-0.006,0.017,0.1145916,-0.286479,-0.3437748
0.004,-0.049,0.062,1.145916,0.9740286,0.9740286
0.041,-0.006,-0.048,0.859437,0.4010706,0.1145916
0.133,-0.27,0.001,-4.1252976,-0.6875496,3.6669312
0.15,-0.227,0.524,-0.286479,-1.145916,2.291832
0,0,0,0,0.3437748,-0.1718874
0,-0.007,0.013,0.2291832,-0.2291832,-0.3437748
0.003,-0.045,0.062,1.0313244,1.0313244,0.859437
0.044,-0.006,-0.048,1.0313244,0.0572958,0.1145916
0.131,-0.273,0.005,-7.8495246,-0.572958,3.6669312
0.156,-0.218,0.525,1.145916,-0.4583664,2.291832
0,0,0,0.0572958,0.286479,-0.1145916
0.002,-0.006,0.011,0.286479,0,-0.1718874
0.002,-0.044,0.061,0.9740286,0.9740286,0.7448454
0.048,-0.006,-0.048,0.9740286,0.3437748,0.1145916
0.13,-0.297,0.013,-9.3392154,-0.6875496,3.6096354
0.156,-0.213,0.525,1.145916,-0.1718874,2.1199446
0,0,0,0.1145916,0.2291832,0
0.003,-0.004,0.012,0.2291832,0.4583664,0.0572958
0.002,-0.044,0.06,0.9740286,0.9740286,0.6875496
0.051,-0.003,-0.047,0.9167328,0.9740286,0.1145916
0.128,-0.293,0.017,-7.1046792,-0.8021412,3.6096354
0.151,-0.205,0.53,-0.286479,-0.286479,1.6042824
0,0,0,0.1145916,0.2291832,0
0,-0.001,0.011,0.4583664,1.0313244,0.1718874
0.003,-0.042,0.059,0.9740286,0.9167328,0.7448454
0.05,0,-0.047,1.0886202,1.0886202,-0.0572958
0.134,-0.295,0.018,-4.1825934,-0.7448454,3.2085648
0.148,-0.202,0.536,-2.3491278,-0.8021412,1.3750992
0,0,0,0.1145916,0.286479,0
-0.005,0,0.015,0.6302538,0.6875496,0.1145916
0.004,-0.04,0.059,1.0886202,0.859437,0.8021412
0.047,0,-0.047,0.9740286,1.3750992,-0.0572958
0.137,-0.309,0.017,1.2032118,-0.9740286,2.6929026
0.148,-0.207,0.536,-3.8961144,-1.3750992,1.2032118
0,0,0,0.2291832,0.3437748,0
-0.007,0.001,0.023,0.4583664,0.1145916,0
0.006,-0.04,0.059,1.145916,0.859437,0.9167328
0.043,0,-0.046,0.8021412,1.6615782,-0.1145916
0.135,-0.297,0.003,6.3598338,-1.3750992,2.2345362
0.147,-0.211,0.533,-5.0993262,-1.7761698,1.3750992
0,0,0,0.3437748,0.286479,0
-0.004,0,0.025,0.2291832,-0.1718874,-0.1145916
0.007,-0.039,0.058,1.145916,0.859437,0.9740286
0.039,0,-0.048,0.8021412,1.432395,0
0.134,-0.273,-0.009,8.1932994,-1.9480572,1.8907614
0.145,-0.22,0.537,-4.6982556,-2.005353,1.6615782
0,0,0,0.286479,0.4010706,-0.0572958
-0.002,-0.002,0.027,0.286479,-0.572958,-0.3437748
0.007,-0.041,0.057,1.145916,0.9740286,0.9740286
0.037,0,-0.049,0.7448454,1.2605076,-0.1145916
0.129,-0.267,0,3.8388186,-2.1199446,2.1772404
0.143,-0.223,0.538,-3.2658606,-1.9480572,2.1199446
0,0,0,0.3437748,0.4583664,-0.1145916
0,-0.006,0.024,0.4010706,-0.5156622,-0.4010706
0.009,-0.043,0.057,1.145916,1.0313244,0.9167328
0.038,-0.002,-0.049,0.8021412,1.2032118,-0.0572958
0.137,-0.266,0.018,-1.6042824,-1.5469866,2.86479
0.144,-0.225,0.538,-1.145916,-1.5469866,2.2345362
0,0,0,0.2291832,0.4583664,0
0.001,-0.01,0.018,0.4010706,-0.1145916,-0.286479
0.008,-0.045,0.056,1.2032118,1.2032118,0.859437
0.041,-0.003,-0.05,0.8021412,1.0313244,0
0.135,-0.266,0.023,-7.6203414,-0.6302538,3.151269
0.148,-0.221,0.533,0.3437748,-1.2032118,2.1772404
0,0,0,0.2291832,0.286479,0
0.001,-0.009,0.008,0.6302538,-0.0572958,-0.1718874
0.005,-0.044,0.054,1.3178034,1.432395,0.8021412
0.045,-0.004,-0.048,0.9167328,0.6302538,0.1145916
0.123,-0.278,0.024,-12.605076,0.0572958,3.437748
0.152,-0.21,0.532,0.572958,-0.8021412,2.1199446
0,0,0,0.1145916,0.3437748,0
0,-0.004,0.005,0.6875496,0,0
0.002,-0.041,0.055,1.432395,1.6042824,0.859437
0.05,-0.002,-0.046,0.9167328,0.6302538,0.1718874
0.126,-0.28,0.019,-15.469866,0.5156622,3.8961144
0.15,-0.2,0.536,-1.2032118,-1.145916,1.8907614
0,0,0,0.2291832,0.1718874,0
-0.002,0.001,0.007,0.6302538,0,0.1145916
0,-0.036,0.055,1.6042824,1.6615782,0.9167328
0.051,-0.001,-0.046,0.7448454,0.8021412,0.0572958
0.133,-0.298,0.029,-15.5271618,0.9167328,3.8961144
0.145,-0.197,0.543,-3.6096354,-1.6042824,1.7761698
0,0,0,0.286479,0.2291832,0
-0.001,0.004,0.009,0.859437,-0.0572958,0.1718874
-0.001,-0.035,0.054,1.6615782,1.718874,0.9740286
0.048,0,-0.045,0.8021412,0.7448454,-0.1145916
0.137,-0.298,0.03,-13.0061466,1.0313244,3.8961144
0.145,-0.2,0.541,-6.016059,-2.4064236,1.718874
0,0,0,0.4010706,0.1718874,0.0572958
0.001,0.004,0.02,0.6875496,-0.0572958,0.0572958
-0.001,-0.033,0.053,1.718874,1.6615782,1.0886202
0.042,0,-0.045,0.859437,0.9167328,-0.286479
0.135,-0.305,0.027,-8.7089616,0.7448454,3.437748
0.145,-0.207,0.537,-7.7922288,-3.437748,1.9480572
0,0,0,0.5156622,0.2291832,0.0572958
0.005,-0.002,0.024,0.3437748,0.2291832,0
0,-0.035,0.052,1.7761698,1.4896908,1.2032118
0.039,0,-0.048,0.6875496,1.3750992,-0.286479
0.122,-0.302,0.026,-3.0939732,0,2.9220858
0.143,-0.226,0.531,-7.2192708,-3.7815228,2.3491278
0,0,0,0.5156622,0.2291832,0.0572958
0.003,-0.006,0.024,0.2291832,0.1718874,-0.0572958
0.002,-0.037,0.05,1.8334656,1.3178034,1.3178034
0.038,0,-0.048,0.6875496,1.0313244,-0.1718874
0.117,-0.282,0.027,1.0886202,-0.859437,3.0366774
0.136,-0.234,0.524,-5.156622,-3.6096354,3.2085648
0,0,0,0.6302538,0.286479,0.1145916
0.001,-0.006,0.02,0.286479,0,-0.0572958
0.004,-0.039,0.05,1.8907614,1.145916,1.3750992
0.039,0,-0.047,0.8021412,0.4010706,0
0.127,-0.28,0.03,0.9167328,-0.9740286,3.151269
0.137,-0.24,0.518,-2.578311,-3.0939732,4.1825934
0,0,0,0.6302538,0.4010706,0
0.001,-0.007,0.015,0.4010706,0,0
0.004,-0.033,0.051,1.8907614,0.9740286,1.432395
0.043,0,-0.047,0.572958,0.3437748,0.0572958
0.131,-0.271,0.026,-1.0886202,-0.4583664,3.437748
0.149,-0.234,0.516,-1.3750992,-2.4637194,4.8128472
0,0,0,0.4010706,0.5156622,-0.0572958
0.001,-0.006,0.009,0.859437,0.0572958,0
0.004,-0.033,0.051,1.8334656,0.859437,1.3750992
0.047,-0.002,-0.048,0.286479,0.572958,0.0572958
0.124,-0.265,0.022,-5.6722842,0.3437748,3.6669312
0.16,-0.21,0.531,-3.151269,-2.2345362,4.8128472
0,0,0,0.4583664,0.4010706,-0.0572958
-0.002,-0.001,0.004,1.145916,0.3437748,0
0.007,-0.037,0.048,1.718874,0.7448454,1.2605076
0.047,-0.005,-0.041,0.3437748,0.4010706,0.0572958
0.123,-0.276,0.028,-8.6516658,0.6875496,3.9534102
0.154,-0.197,0.544,-8.0787078,-2.9220858,3.8388186
0,0,0,0.4010706,0.1145916,-0.1145916
-0.007,0,0.005,1.0313244,0.4583664,0
0.008,-0.037,0.046,1.6042824,0.7448454,0.9740286
0.047,-0.003,-0.041,0.4583664,0.7448454,0
0.127,-0.278,0.031,-10.2559482,1.0886202,3.8961144
0.146,-0.206,0.552,-13.9228794,-4.7555514,2.4064236
0,0,0,0.286479,0.0572958,0
-0.005,-0.002,0.008,0.9167328,0.2291832,-0.1145916
0.01,-0.037,0.045,1.5469866,0.859437,0.6875496
0.046,-0.003,-0.046,0.4010706,1.4896908,0
0.135,-0.28,0.03,-11.3445684,1.7761698,3.724227
0.142,-0.224,0.547,-18.5638392,-6.4744254,1.0886202
0,0,0,0.286479,0.1145916,0.0572958
-0.004,-0.002,0.012,0.8021412,0.0572958,-0.1718874
0.012,-0.035,0.046,1.4896908,1.0313244,0.3437748
0.043,-0.002,-0.049,0.3437748,1.4896908,-0.0572958
0.131,-0.307,0.029,-9.5111028,2.005353,3.3231564
0.149,-0.245,0.539,-18.2773602,-6.9900876,0.7448454
0,0,0,0.4010706,0,0
0.001,-0.003,0.021,0.5156622,0.0572958,-0.1145916
0.013,-0.03,0.045,1.432395,1.3178034,0.1718874
0.042,-0.002,-0.051,0.3437748,1.3178034,0
0.133,-0.293,0.021,-4.9274388,1.7761698,2.9220858
0.15,-0.258,0.524,-15.0114996,-6.9327918,0.8021412
0,0,0,0.286479,0.2291832,0
0.004,-0.001,0.022,0.5156622,-0.1145916,0
0.009,-0.025,0.046,1.3178034,1.6042824,0.1145916
0.041,-0.001,-0.052,0.286479,0.9740286,-0.0572958
0.13,-0.282,0.006,-1.432395,1.5469866,2.0626488
0.148,-0.272,0.512,-9.740286,-6.2452422,1.2605076
0,0,0,0.3437748,0.4583664,-0.0572958
0.004,0.001,0.02,0.286479,0.2291832,0
0.005,-0.027,0.046,1.145916,1.9480572,0.1145916
0.041,0.001,-0.052,0.1145916,0.5156622,0
0.131,-0.277,0.003,0.6302538,1.2032118,1.432395
0.148,-0.271,0.504,-4.4117766,-4.7555514,1.8907614
0,0,0,0.3437748,0.4010706,-0.1145916
0.002,0,0.018,0.4010706,0.0572958,0
0.001,-0.027,0.047,0.9167328,2.1772404,0.1145916
0.04,0.001,-0.047,0,0.286479,0
0.132,-0.275,0.005,1.0886202,1.3178034,0.9167328
0.158,-0.262,0.515,-0.6302538,-3.2085648,2.1199446
0,0,0,0.286479,0.4010706,-0.1718874
0,0,0.014,0.6302538,-0.0572958,0.1145916
-0.005,-0.027,0.046,0.6875496,2.3491278,0.2291832
0.04,0,-0.043,0.286479,0.4010706,0.1145916
0.13,-0.268,0,-1.0886202,1.4896908,0.859437
0.15,-0.245,0.524,-0.0572958,-2.7501984,2.0626488
0,0,0,0.1718874,0.286479,-0.1145916
0,-0.003,0.009,0.859437,-0.3437748,0.1145916
-0.01,-0.032,0.044,0.4010706,2.291832,0.2291832
0.042,0,-0.044,0.572958,0.6302538,0.1718874
0.125,-0.273,0.002,-4.0680018,1.718874,0.7448454
0.147,-0.236,0.517,-2.1199446,-3.2085648,2.291832
0,0,0,0.1718874,0,0
-0.005,-0.003,0.009,0.859437,-0.1145916,0
-0.01,-0.034,0.043,0.1718874,2.0626488,0.286479
0.046,-0.002,-0.044,0.8021412,0.8021412,0.0572958
0.123,-0.28,0.003,-5.5576926,2.005353,0.6875496
0.146,-0.25,0.502,-4.6982556,-3.8961144,2.3491278
0,0,0,0.1145916,-0.1145916,0.0572958
-0.007,-0.001,0.008,0.6302538,-0.1718874,-0.0572958
-0.011,-0.033,0.043,0,1.7761698,0.3437748
0.047,-0.004,-0.045,0.9740286,0.7448454,-0.0572958
0.124,-0.288,0,-5.2712136,1.6042824,0.5156622
0.147,-0.267,0.493,-5.8441716,-4.4690724,2.7501984
0,0,0,0.0572958,-0.0572958,0.1145916
-0.009,-0.002,0.009,0.4010706,-0.4010706,-0.1145916
-0.007,-0.031,0.043,-0.1145916,1.3178034,0.3437748
0.048,-0.003,-0.049,0.859437,1.2032118,-0.1718874
0.122,-0.294,-0.005,-2.4637194,1.3178034,0.286479
0.15,-0.274,0.483,-4.9847346,-4.4117766,3.2085648
0,0,0,0.286479,0,0.1145916
-0.005,-0.003,0.008,0.2291832,-0.4583664,-0.1718874
-0.003,-0.03,0.043,-0.2291832,0.859437,0.4010706
0.049,-0.002,-0.048,0.5156622,1.2605076,-0.2291832
0.122,-0.295,-0.011,0.9167328,0.9167328,0.1718874
0.162,-0.274,0.486,-3.3804522,-3.9534102,3.4950438
0,0,0,0.2291832,0.1145916,0.1718874
0.001,-0.004,0.007,0.4583664,-0.4583664,-0.0572958
0,-0.031,0.041,-0.286479,0.5156622,0.4583664
0.049,-0.001,-0.046,0.4010706,1.0886202,-0.286479
0.118,-0.286,-0.017,3.6669312,0.1145916,0.2291832
0.17,-0.268,0.493,-2.86479,-3.4950438,3.2085648
0,0,0,0.3437748,0.286479,0.1145916
0.008,-0.004,0.004,0.4583664,0.286479,-0.1145916
0.003,-0.029,0.042,-0.3437748,0.2291832,0.5156622
0.047,-0.001,-0.048,0.1145916,1.2032118,-0.4010706
0.116,-0.275,-0.015,3.6669312,-0.1718874,0.572958
0.17,-0.266,0.498,-3.0366774,-3.2085648,2.2345362
0,0,0,0.4583664,0.4583664,0.0572958
0.01,-0.003,0.001,0.4583664,0.5156622,-0.0572958
0.004,-0.032,0.042,-0.5156622,0.0572958,0.572958
0.043,-0.002,-0.048,0.1145916,1.6042824,-0.4010706
0.117,-0.268,-0.009,1.0313244,-0.4583664,0.572958
0.166,-0.276,0.495,-3.5523396,-2.9220858,0.9740286
0,0,0,0.3437748,0.5156622,0
0.005,-0.003,0.011,0.4010706,0.6875496,0
0.004,-0.038,0.041,-0.6302538,0.0572958,0.5156622
0.039,-0.004,-0.048,0.1145916,1.6615782,-0.5156622
0.116,-0.271,-0.006,-2.4064236,-0.4583664,1.0886202
0.16,-0.284,0.489,-2.5210152,-2.2345362,0.2291832
0,0,0,0.286479,0.6875496,0.0572958
0.006,-0.004,0.018,0.3437748,0.2291832,0.286479
0.007,-0.026,0.044,-0.6875496,0.0572958,0.4583664
0.038,-0.003,-0.049,0.4010706,1.2032118,-0.3437748
0.118,-0.268,-0.007,-7.0473834,0,1.718874
0.153,-0.283,0.485,-0.1145916,-1.3750992,0.3437748
0,0,0,0.4010706,0.5156622,0
0.006,0,0.009,0.6875496,0.3437748,0.286479
0.007,-0.022,0.045,-0.8021412,0.2291832,0.4583664
0.038,-0.004,-0.049,0.286479,1.4896908,-0.2291832
0.121,-0.288,0,-8.307891,-0.2291832,1.8334656
0.15,-0.285,0.497,1.718874,-0.3437748,0.6875496
0,0,0,0.3437748,0.5156622,0.0572958
0.002,0.005,0.013,0.5156622,0.286479,0.4010706
0.006,-0.029,0.046,-0.9167328,0.3437748,0.572958
0.041,0,-0.049,0.2291832,1.4896908,-0.1145916
0.12,-0.297,-0.005,-5.2712136,-0.7448454,1.6615782
0.156,-0.276,0.508,2.1772404,0,0.8021412
0,0,0,0.3437748,0.572958,0.0572958
0,0.001,0.016,0.286479,0.3437748,0.1145916
0.002,-0.028,0.047,-1.0313244,0.5156622,0.7448454
0.043,0.003,-0.049,0.286479,1.3750992,0
0.119,-0.295,-0.006,-0.8021412,-1.6615782,1.4896908
0.171,-0.259,0.513,0.6302538,-0.9167328,0.572958
0,0,0,0.3437748,0.9167328,0.1145916
-0.004,0,0.012,0.572958,0.5156622,0.0572958
-0.001,-0.031,0.044,-1.0313244,0.6302538,0.7448454
0.045,0.005,-0.046,0.3437748,1.2605076,-0.0572958
0.12,-0.298,0,3.2658606,-2.0626488,1.2605076
0.166,-0.257,0.515,-1.145916,-1.8334656,-0.5156622
0,0,0,0.4010706,1.0313244,0
-0.004,0,0.008,0.4583664,0.7448454,-0.0572958
0,-0.035,0.042,-0.9740286,0.6302538,0.572958
0.046,0.002,-0.047,0.0572958,1.6042824,-0.2291832
0.121,-0.288,-0.001,6.6463128,-2.6356068,1.0886202
0.16,-0.269,0.512,-2.5210152,-2.4064236,-1.432395
0,0,0,0.3437748,0.859437,-0.1145916
-0.002,-0.003,0.003,0.286479,0.9740286,-0.1145916
0.003,-0.04,0.041,-0.859437,0.6302538,0.4010706
0.046,-0.002,-0.047,0.0572958,1.2605076,-0.286479
0.112,-0.27,-0.001,6.589017,-2.9220858,1.2032118
0.153,-0.276,0.497,-1.9480572,-2.4064236,-1.8907614
0,0,0,0.1718874,0.9167328,-0.2291832
-0.002,-0.006,-0.001,0.286479,0.859437,-0.1145916
0.004,-0.039,0.04,-0.572958,0.572958,0.2291832
0.045,-0.004,-0.046,-0.1145916,0.9167328,-0.2291832
0.116,-0.264,0.006,2.9220858,-2.86479,1.432395
0.151,-0.281,0.492,-0.0572958,-2.1199446,-2.1772404
0,0,0,0.2291832,0.3437748,-0.286479
-0.001,-0.006,-0.001,0.4583664,0.6302538,0
0.002,-0.036,0.039,-0.1718874,0.572958,0
0.043,-0.008,-0.044,-0.3437748,0.7448454,-0.1718874
0.125,-0.259,0.007,-1.8334656,-2.2345362,1.7761698
0.151,-0.285,0.501,2.0626488,-1.6042824,-2.4064236
0,0,0,0.0572958,0.1718874,-0.286479
0,-0.003,0,0.3437748,0.3437748,0
0.002,-0.035,0.04,0.0572958,0.572958,-0.0572958
0.041,-0.006,-0.044,-0.4010706,0.572958,0
0.124,-0.264,0.002,-7.2192708,-1.145916,2.005353
0.163,-0.262,0.505,3.0366774,-0.9740286,-2.4064236
0,0,0,0.1718874,0.1145916,-0.1145916
0,0,0,0.3437748,0.4583664,0.0572958
0.003,-0.029,0.041,0.3437748,0.572958,-0.1145916
0.041,-0.006,-0.043,-0.2291832,0.4010706,-0.0572958
0.12,-0.279,0.005,-10.0840608,-0.7448454,1.8907614
0.167,-0.25,0.507,1.4896908,-0.9740286,-3.151269
0,0,0,0.1145916,0.286479,-0.1145916
0,0.001,0.006,0.2291832,0.4010706,0.0572958
0.003,-0.025,0.039,0.5156622,0.572958,-0.0572958
0.041,-0.005,-0.045,-0.1145916,0.5156622,-0.0572958
0.122,-0.288,0.013,-8.6516658,-0.7448454,1.5469866
0.163,-0.247,0.511,-1.5469866,-1.0313244,-4.4117766
0,0,0,0.2291832,0.0572958,0
-0.001,0,0.017,-0.1145916,0.286479,0.1145916
0.003,-0.025,0.038,0.5156622,0.572958,-0.0572958
0.041,-0.001,-0.048,0,0.7448454,-0.0572958
0.125,-0.294,0.017,-4.3544808,-0.9740286,1.0313244
0.15,-0.25,0.507,-5.5003968,-2.1772404,-5.3858052
0,0,0,0.286479,0,0
0.001,0,0.023,-0.1718874,0.286479,0
0.001,-0.023,0.037,0.5156622,0.572958,0
0.039,0.001,-0.05,0,0.2291832,-0.1718874
0.124,-0.294,0.019,-1.2032118,-1.3750992,0.8021412
0.15,-0.26,0.502,-7.0473834,-2.4064236,-5.9014674
0,0,0,0.4010706,0,0
0.003,0.003,0.026,-0.1718874,0.0572958,0.1145916
0,-0.021,0.037,0.4010706,0.4583664,-0.1145916
0.038,0.002,-0.051,-0.0572958,0,-0.1718874
0.122,-0.292,0.021,2.0626488,-1.6042824,0.7448454
0.147,-0.276,0.499,-6.1879464,-1.9480572,-5.9014674
0,0,0,0.2291832,0.2291832,0
0.004,0,0.028,-0.0572958,0.3437748,0.0572958
-0.003,-0.022,0.036,0.2291832,0.3437748,-0.286479
0.038,0.002,-0.049,-0.0572958,0,-0.0572958
0.119,-0.272,0.02,2.7501984,-1.9480572,1.2032118
0.147,-0.275,0.501,-2.8074942,-0.9740286,-5.72958
0,0,0,0.2291832,0.4583664,-0.0572958
0.002,-0.001,0.032,0,0.6875496,0.0572958
-0.005,-0.025,0.035,0,0.1718874,-0.572958
0.04,0.002,-0.047,-0.1718874,0,-0.0572958
0.12,-0.27,0.027,0.9740286,-1.718874,1.6615782
0.157,-0.271,0.497,0.572958,0,-5.6149884
0,0,0,0,0.859437,-0.2291832
-0.004,-0.005,0.024,0.1718874,0.4010706,-0.0572958
-0.004,-0.024,0.036,-0.2291832,-0.0572958,-0.859437
0.042,-0.001,-0.045,0.2291832,0,-0.0572958
0.122,-0.273,0.028,-0.8021412,-1.3750992,2.005353
0.167,-0.251,0.504,2.3491278,0.9167328,-5.8441716
0,0,0,0,0.9740286,-0.286479
-0.008,-0.002,0.015,0.2291832,0,-0.2291832
-0.005,-0.026,0.037,-0.4583664,-0.4010706,-1.0313244
0.044,-0.002,-0.045,0.286479,0.4010706,-0.0572958
0.122,-0.27,0.019,-1.9480572,-0.9167328,2.1199446
0.163,-0.239,0.517,1.3750992,0.5156622,-6.5317212
0,0,0,-0.0572958,0.859437,-0.286479
-0.006,-0.007,0.005,0.1718874,-0.4010706,-0.2291832
-0.004,-0.029,0.038,-0.6875496,-0.6875496,-1.2032118
0.044,-0.005,-0.046,0.4583664,0.859437,0
0.119,-0.277,0.017,-2.2345362,-0.859437,1.7761698
0.161,-0.238,0.511,-0.7448454,-0.4583664,-6.9327918
0,0,0,-0.0572958,0.6875496,-0.2291832
-0.004,-0.009,-0.005,0.4010706,-0.572958,-0.1145916
-0.001,-0.03,0.037,-0.8021412,-0.9740286,-1.2032118
0.041,-0.003,-0.044,0.3437748,0.7448454,0.0572958
0.116,-0.278,0.016,-0.8021412,-0.8021412,1.3750992
0.158,-0.246,0.497,-2.4637194,-1.2032118,-7.3911582
0,0,0,-0.0572958,0.3437748,-0.1718874
-0.003,-0.005,-0.01,0.4010706,-0.4583664,-0.1145916
0,-0.031,0.038,-0.9167328,-1.145916,-1.0886202
0.037,-0.003,-0.042,0.0572958,0.1145916,0.1145916
0.122,-0.278,0.018,1.3750992,-0.6302538,0.859437
0.146,-0.259,0.492,-2.4064236,-1.0886202,-7.448454
0,0,0,0,-0.0572958,-0.1718874
-0.001,-0.002,-0.01,0.3437748,-0.572958,-0.1145916
0,-0.031,0.037,-0.9167328,-1.2605076,-1.0313244
0.033,-0.001,-0.039,-0.2291832,-0.1718874,0
0.128,-0.275,0.014,3.4950438,-0.4583664,0.4010706
0.144,-0.264,0.489,-1.0886202,-0.6302538,-7.0473834
0,0,0,0,-0.286479,-0.1718874
0.001,0.001,-0.006,0.1145916,-0.3437748,-0.1145916
0.001,-0.03,0.037,-0.859437,-1.3178034,-0.9167328
0.031,0,-0.037,-0.7448454,-0.859437,-0.0572958
0.123,-0.262,0.001,4.2398892,-0.4010706,0.3437748
0.152,-0.261,0.488,0.6302538,0.2291832,-5.9014674
0,0,0,0.1145916,-0.4583664,-0.1145916
0,0.001,0,-0.0572958,-0.0572958,0
-0.002,-0.027,0.037,-0.6875496,-1.3178034,-0.9167328
0.03,0,-0.033,-0.6875496,-1.3750992,-0.286479
0.118,-0.254,-0.001,2.86479,-0.6875496,0.6302538
0.163,-0.25,0.496,1.7761698,1.0886202,-5.2712136
0,0,0,0.0572958,-0.7448454,-0.0572958
0,0,0.01,0,-0.1718874,0.0572958
-0.004,-0.026,0.037,-0.5156622,-1.3178034,-0.9740286
0.033,0,-0.034,-0.572958,-1.4896908,-0.286479
0.122,-0.253,-0.003,0.1718874,-0.6302538,1.3750992
0.171,-0.239,0.514,1.4896908,1.4896908,-5.3285094
0,0,0,0.3437748,-0.9167328,0
0,0.001,0.02,0.0572958,-0.1718874,0.0572958
-0.004,-0.029,0.036,-0.3437748,-1.3178034,-1.0313244
0.038,0,-0.038,-0.286479,-1.3178034,-0.2291832
0.123,-0.246,-0.006,-2.0626488,-0.9740286,1.8334656
0.162,-0.222,0.525,-0.286479,1.2032118,-5.9014674
0,0,0,0.3437748,-1.0313244,0.0572958
-0.002,0,0.027,0.2291832,-0.286479,0
0,-0.03,0.035,-0.1718874,-1.3178034,-1.0886202
0.041,-0.001,-0.042,-0.0572958,-1.2605076,-0.2291832
0.124,-0.256,-0.004,-3.724227,-1.3178034,2.1199446
0.159,-0.23,0.524,-2.9220858,0.1718874,-7.0473834
0,0,0,0.286479,-1.145916,0.0572958
-0.005,-0.003,0.027,0.1145916,-0.3437748,-0.1718874
0.003,-0.031,0.036,-0.0572958,-1.2032118,-0.9740286
0.041,-0.003,-0.044,-0.1718874,-1.2605076,-0.2291832
0.121,-0.264,-0.002,-4.0680018,-1.7761698,2.005353
0.159,-0.235,0.518,-4.5263682,-0.9167328,-8.0787078
0,0,0,0.2291832,-0.6875496,0
-0.005,-0.007,0.027,0.0572958,-0.8021412,-0.286479
0.005,-0.028,0.035,0,-0.9740286,-0.7448454
0.042,-0.006,-0.047,-0.1145916,-0.7448454,-0.1145916
0.109,-0.265,0.001,-2.9220858,-2.005353,1.6615782
0.16,-0.25,0.511,-4.9847346,-1.9480572,-8.880849
0,0,0,0.1718874,-0.4583664,0
-0.004,-0.007,0.021,0.0572958,-1.0886202,-0.286479
0.006,-0.022,0.035,0,-0.6875496,-0.4010706
0.041,-0.003,-0.045,0,-0.6875496,-0.0572958
0.111,-0.268,0.008,-0.8021412,-2.291832,1.3750992
0.16,-0.261,0.505,-2.578311,-1.9480572,-8.9381448
0,0,0,0.1145916,-0.1718874,-0.1145916
-0.001,-0.001,0.007,0.2291832,-1.2032118,-0.1718874
0.002,-0.019,0.035,-0.0572958,-0.3437748,0
0.043,-0.002,-0.044,0,-0.6875496,-0.1145916
0.12,-0.272,0.012,2.291832,-2.4064236,1.0313244
0.161,-0.258,0.494,1.8334656,-0.8021412,-8.307891
0,0,0,0,0.2291832,-0.1145916
0,0.001,0,0.286479,-0.859437,-0.0572958
0,-0.018,0.035,-0.1718874,0,0.1718874
0.042,0.002,-0.042,-0.1718874,-0.2291832,-0.1718874
0.123,-0.264,0.003,4.4117766,-2.4637194,0.572958
0.16,-0.248,0.496,5.2712136,0.0572958,-7.6776372
0,0,0,0.0572958,0.4010706,-0.1145916
0.001,0.002,-0.004,0.3437748,-0.6875496,0
-0.002,-0.021,0.033,-0.286479,0.2291832,0.3437748
0.041,0.002,-0.041,-0.5156622,0.2291832,-0.2291832
0.12,-0.259,0.005,4.5263682,-2.0626488,0.2291832
0.155,-0.238,0.509,6.7036086,0.8021412,-7.161975
0,0,0,0.1718874,0.572958,-0.1145916
0.004,0,-0.004,0.3437748,-0.3437748,0.1145916
-0.003,-0.025,0.031,-0.286479,0.4010706,0.4010706
0.039,0.002,-0.042,-0.2291832,0,-0.1145916
0.121,-0.254,0.008,3.2658606,-1.4896908,-0.5156622
0.153,-0.224,0.515,5.2712136,1.0313244,-6.7609044
0,0,0,0.2291832,0.572958,0
0.009,-0.002,-0.003,0.286479,0.286479,0.1718874
0,-0.028,0.03,-0.3437748,0.4583664,0.5156622
0.034,-0.001,-0.042,-0.3437748,0.0572958,-0.0572958
0.121,-0.248,0.006,0.572958,-0.8021412,-1.145916
0.153,-0.221,0.509,2.8074942,0.4010706,-6.589017
0,0,0,0.4583664,0.2291832,-0.0572958
0.007,0,-0.001,0.4010706,0.9167328,0.1718874
0,-0.026,0.03,-0.2291832,0.4583664,0.7448454
0.032,-0.002,-0.038,-0.572958,-0.1145916,0
0.117,-0.25,0.007,-2.291832,-0.0572958,-2.1199446
0.152,-0.227,0.499,-0.1718874,-0.3437748,-6.6463128
0,0,0,0.4583664,0.1145916,0
0,-0.001,0.009,0.2291832,1.0313244,0.1718874
-0.002,-0.022,0.029,-0.0572958,0.4010706,0.9167328
0.03,-0.002,-0.039,-0.8021412,-0.6302538,0
0.114,-0.258,0.009,-4.4690724,0.4583664,-3.3231564
0.152,-0.24,0.494,-1.3750992,-0.8021412,-6.589017
0,0,0,0.3437748,0.0572958,-0.0572958
0.002,-0.003,0.022,0,0.8021412,0.1145916
-0.003,-0.022,0.026,0.0572958,0.2291832,1.0313244
0.031,-0.002,-0.04,-0.9740286,-1.2605076,0
0.112,-0.267,0.01,-4.7555514,0.572958,-4.3544808
0.152,-0.248,0.494,-0.572958,-0.9167328,-6.302538
0,0,0,0.286479,0.2291832,0
0,-0.001,0.025,0.1145916,0.6302538,0.0572958
-0.004,-0.025,0.025,0.2291832,-0.0572958,0.9740286
0.034,-0.004,-0.037,-1.145916,-0.9167328,-0.0572958
0.115,-0.276,0.01,-3.3231564,0.572958,-4.9847346
0.152,-0.255,0.499,1.6615782,-0.6302538,-6.1879464
0,0,0,0.286479,0.1718874,-0.0572958
-0.006,0,0.026,0.2291832,0.572958,0
-0.006,-0.02,0.025,0.4010706,-0.4583664,0.6302538
0.039,-0.003,-0.034,-1.0886202,-0.5156622,-0.1718874
0.117,-0.282,0.006,-1.145916,0.286479,-5.0993262
0.164,-0.25,0.499,3.8388186,0,-6.3598338
0,0,0,0.3437748,0.2291832,0
-0.009,-0.001,0.023,0.286479,0,-0.1145916
-0.004,-0.015,0.027,0.4583664,-0.9167328,0.0572958
0.042,-0.001,-0.037,-0.6875496,-0.1718874,-0.1718874
0.114,-0.282,0.005,-0.0572958,0.4583664,-4.7555514
0.175,-0.238,0.502,4.9274388,0.4010706,-6.875496
0,0,0,0.2291832,0.1718874,-0.0572958
-0.007,-0.004,0.013,0.4010706,-0.5156622,-0.1718874
-0.002,-0.012,0.028,0.3437748,-1.3750992,-0.572958
0.041,0.001,-0.043,-0.4583664,0.5156622,0
0.111,-0.277,0.006,-0.572958,0.286479,-4.3544808
0.164,-0.226,0.507,4.4690724,0.4583664,-7.5630456
0,0,0,0.2291832,-0.1145916,-0.0572958
-0.006,-0.004,0.001,0.5156622,-0.8021412,-0.1718874
0,-0.013,0.029,0.1145916,-1.7761698,-1.2032118
0.038,0.001,-0.048,-0.6302538,0.7448454,0
0.117,-0.276,0.005,-2.291832,0.5156622,-3.7815228
0.149,-0.222,0.511,3.3231564,0.2291832,-8.021412
0,0,0,0.0572958,-0.286479,-0.0572958
-0.01,-0.002,-0.005,0.572958,-1.2605076,-0.1145916
0,-0.017,0.028,-0.1718874,-2.1199446,-1.6615782
0.033,0,-0.046,-0.7448454,0,0.286479
0.117,-0.276,0.007,-4.9274388,0.859437,-3.3231564
0.143,-0.217,0.51,2.4637194,0,-7.734933
0,0,0,0.1145916,-0.7448454,-0.1145916
-0.011,0,-0.006,0.5156622,-1.3178034,0
0.001,-0.02,0.028,-0.4583664,-2.3491278,-1.8334656
0.029,-0.001,-0.041,-0.8021412,-1.145916,0.4583664
0.119,-0.28,0.011,-6.7609044,1.145916,-3.3231564
0.142,-0.216,0.511,1.3178034,0.1145916,-6.9327918
0,0,0,0.1718874,-1.0313244,-0.1145916
-0.005,-0.001,-0.002,0.4010706,-1.6042824,0.0572958
0,-0.021,0.027,-0.7448454,-2.4637194,-1.8334656
0.027,-0.001,-0.037,-0.9740286,-1.7761698,0.5156622
0.123,-0.292,0.014,-7.161975,1.3178034,-3.6669312
0.15,-0.213,0.524,0.2291832,0,-5.8441716
0,0,0,0.1718874,-1.145916,0
0.001,0,0,0.3437748,-1.7761698,0.0572958
0,-0.025,0.028,-0.9167328,-2.5210152,-1.6615782
0.027,-0.002,-0.035,-1.145916,-2.291832,0.2291832
0.124,-0.297,0.013,-6.1306506,1.4896908,-3.8388186
0.16,-0.21,0.524,0,-0.4010706,-4.583664
0,0,0,0.1145916,-1.145916,0
0.003,0,0.004,0.1145916,-1.432395,0
-0.001,-0.024,0.026,-0.9740286,-2.578311,-1.4896908
0.027,-0.004,-0.034,-0.9167328,-2.5210152,0.0572958
0.124,-0.294,0.006,-4.6982556,1.4896908,-3.8961144
0.17,-0.21,0.522,0.0572958,-0.8021412,-3.5523396
0,0,0,-0.0572958,-1.2605076,0.0572958
0.006,0,0.011,-0.0572958,-1.145916,0.0572958
-0.001,-0.024,0.026,-0.859437,-2.6356068,-1.3178034
0.029,-0.006,-0.037,-0.6302538,-2.3491278,0
0.121,-0.294,0.001,-3.9534102,1.5469866,-3.8961144
0.162,-0.208,0.52,0.4583664,-1.432395,-2.8074942
0,0,0,0,-1.4896908,0.0572958
0.008,-0.003,0.015,-0.0572958,-0.8021412,0.1718874
0.001,-0.024,0.025,-0.6302538,-2.6929026,-1.2032118
0.032,-0.005,-0.042,-0.1145916,-2.4064236,0.0572958
0.117,-0.289,0,-4.7555514,1.5469866,-3.3231564
0.156,-0.207,0.517,0.6302538,-1.8334656,-2.005353
0,0,0,0,-1.432395,0.1718874
0.007,0,0.014,0.286479,-0.6875496,0.2291832
0.005,-0.024,0.025,-0.3437748,-2.6929026,-1.145916
0.036,-0.002,-0.042,-0.4583664,-2.4064236,0.0572958
0.113,-0.269,0.004,-8.880849,1.718874,-2.7501984
0.149,-0.206,0.51,0.8021412,-2.3491278,-0.6302538
0,0,0,-0.0572958,-1.6615782,0.1145916
-0.002,0,0.013,0.2291832,-0.1718874,0.2291832
0.006,-0.021,0.024,-0.1145916,-2.6356068,-0.9740286
0.038,-0.001,-0.043,-0.5156622,-2.6356068,0.2291832
0.115,-0.269,0.017,-16.902261,2.291832,-1.8907614
0.14,-0.209,0.505,1.0313244,-2.4637194,0.9740286
0,0,0,-0.1145916,-1.432395,0.1718874
-0.011,0,0.011,0.3437748,-0.3437748,0.1145916
0.002,-0.017,0.025,0,-2.5210152,-0.8021412
0.041,-0.003,-0.044,-0.572958,-2.2345362,0.286479
0.114,-0.269,0.031,-25.210152,2.9793816,-1.0313244
0.137,-0.214,0.498,1.2605076,-2.4637194,3.2085648
0,0,0,0,-1.0313244,0.2291832
-0.009,0,0.004,0.286479,-1.0313244,0
-0.003,-0.015,0.025,0.0572958,-2.4637194,-0.6875496
0.042,-0.003,-0.045,-0.6875496,-1.8907614,0.1718874
0.123,-0.291,0.04,-30.4813656,3.6669312,-0.1145916
0.136,-0.221,0.499,1.145916,-2.1199446,5.3285094
0,0,0,0,-0.9740286,0.1145916
-0.008,-0.002,0,0.1718874,-1.432395,-0.0572958
-0.009,-0.013,0.025,0,-2.5210152,-0.6302538
0.041,-0.002,-0.043,-0.3437748,-1.7761698,0
0.139,-0.306,0.034,-30.653253,4.6982556,0.9167328
0.139,-0.219,0.511,0.4010706,-2.291832,7.0473834
0,0,0,0.0572958,-0.8021412,0.1718874
-0.005,-0.001,-0.003,0.0572958,-1.6042824,0
-0.013,-0.016,0.024,-0.1145916,-2.8074942,-0.6302538
0.039,0,-0.043,-0.5156622,-1.2605076,0
0.14,-0.312,0.017,-27.501984,5.2139178,1.6042824
0.176,-0.199,0.515,-1.6615782,-3.151269,8.0787078
0,0,0,0.1718874,-0.6302538,0.1145916
0.001,0,-0.007,0.1145916,-1.7761698,0.1718874
-0.011,-0.01,0.027,-0.286479,-3.151269,-0.6875496
0.038,0.002,-0.043,-0.7448454,-1.5469866,-0.2291832
0.132,-0.315,0,-22.345362,4.9847346,2.1772404
0.187,-0.195,0.522,-5.2139178,-4.297185,7.8495246
0,0,0,0.2291832,-0.5156622,0.1145916
0.009,0.002,-0.008,0.1145916,-1.6615782,0.3437748
-0.005,-0.014,0.028,-0.572958,-3.6096354,-0.8021412
0.037,0.003,-0.044,-1.0313244,-1.432395,-0.3437748
0.126,-0.324,-0.006,-13.8655836,4.4117766,2.1772404
0.171,-0.204,0.522,-8.8235532,-5.9014674,6.7036086
0,0,0,0.2291832,-0.572958,0.1718874
0.006,0.002,0.002,-0.0572958,-1.0886202,0.4010706
0.004,-0.023,0.029,-0.7448454,-4.010706,-0.8021412
0.035,0,-0.042,-1.2605076,-1.3750992,-0.572958
0.121,-0.308,-0.008,-2.5210152,2.9220858,1.432395
0.159,-0.229,0.507,-11.6310474,-7.448454,5.443101
0,0,0,0.2291832,-0.6302538,0.1718874
0.006,0.002,0.006,-0.1718874,-0.4010706,0.5156622
0.012,-0.022,0.03,-0.9167328,-4.1825934,-0.6302538
0.03,0,-0.038,-1.2032118,-1.4896908,-0.4583664
0.116,-0.294,-0.002,3.724227,1.7761698,0.286479
0.16,-0.249,0.503,-10.2559482,-7.448454,4.5263682
0,0,0,0.1718874,-0.6875496,0.1145916
0.001,0,0.009,0,-0.1718874,0.4010706
0.015,-0.024,0.033,-1.0313244,-4.0680018,-0.4583664
0.029,-0.003,-0.038,-0.8021412,-1.6615782,-0.4010706
0.116,-0.272,-0.009,6.1879464,0.8021412,-0.572958
0.172,-0.265,0.503,-6.8182002,-6.589017,3.8388186
0,0,0,0.1718874,-0.3437748,0.0572958
-0.007,0,0.021,-0.1718874,0,0.286479
0.018,-0.022,0.032,-1.0886202,-3.724227,-0.286479
0.032,-0.003,-0.04,-0.4583664,-1.8907614,-0.4010706
0.115,-0.252,-0.014,2.5210152,0.859437,-0.6302538
0.177,-0.265,0.501,-1.145916,-5.2712136,3.6669312
0,0,0,0.1718874,-0.0572958,0.1145916
-0.008,-0.004,0.019,-0.4010706,-0.1145916,0.1145916
0.019,-0.023,0.033,-1.145916,-3.151269,0
0.038,-0.003,-0.044,-0.1145916,-1.4896908,-0.4010706
0.121,-0.254,-0.017,-4.5263682,1.432395,0.0572958
0.179,-0.264,0.5,2.4064236,-3.9534102,3.4950438
0,0,0,0.1718874,0.286479,0.1718874
-0.007,-0.004,0.012,-0.0572958,-0.2291832,0
0.013,-0.027,0.032,-1.0313244,-2.4637194,0.1718874
0.042,-0.005,-0.042,-0.1145916,-0.8021412,-0.4583664
0.127,-0.27,-0.018,-9.2819196,2.005353,0.5156622
0.185,-0.25,0.498,4.4117766,-3.3804522,2.9220858
0,0,0,0.1718874,0.286479,0.1145916
-0.002,-0.004,0.006,0,-0.4583664,0.1145916
0.013,-0.03,0.03,-0.8021412,-1.8334656,0.286479
0.043,-0.005,-0.042,0,-0.572958,-0.4010706
0.124,-0.293,-0.018,-9.2819196,2.291832,0.6875496
0.181,-0.227,0.495,2.86479,-3.3231564,1.6042824
0,0,0,0.1718874,0.2291832,0.2291832
0,-0.004,-0.002,0.286479,-0.4010706,0.1145916
0.012,-0.031,0.031,-0.5156622,-1.2032118,0.3437748
0.042,-0.003,-0.041,0.0572958,-0.4583664,-0.3437748
0.122,-0.296,-0.029,-5.156622,2.2345362,0.8021412
0.17,-0.225,0.494,-1.0313244,-4.3544808,0.3437748
0,0,0,0.1718874,-0.0572958,0.2291832
0,0,-0.005,0.3437748,-0.1718874,0.286479
0.009,-0.029,0.03,-0.1718874,-0.6302538,0.286479
0.039,-0.002,-0.043,-0.1718874,-0.1145916,-0.1718874
0.114,-0.297,-0.039,-0.286479,1.145916,0.3437748
0.167,-0.232,0.486,-4.5263682,-5.156622,-0.1145916
0,0,0,0,0,0.2291832
0,0,-0.004,0.2291832,0,0.4583664
0.006,-0.028,0.031,0.1718874,-0.1718874,0.1145916
0.037,-0.002,-0.042,-0.1718874,-0.1145916,-0.1718874
0.102,-0.281,-0.034,5.9587632,-0.2291832,0.1718874
0.165,-0.243,0.478,-6.302538,-5.5003968,-0.1145916
0,0,0,0,-0.1718874,0.286479
-0.004,0,0.002,0.1718874,-0.1718874,0.4010706
0.003,-0.023,0.03,0.4583664,0,-0.0572958
0.033,-0.002,-0.04,-0.3437748,-0.2291832,-0.1718874
0.112,-0.261,-0.022,6.1879464,-0.8021412,0.2291832
0.167,-0.255,0.474,-5.3285094,-5.156622,0
0,0,0,0,0.1718874,0.3437748
-0.002,0,0.011,0,-0.1145916,0.3437748
-0.001,-0.022,0.03,0.7448454,0.1718874,-0.286479
0.032,-0.003,-0.04,-0.4583664,-0.4583664,-0.1145916
0.124,-0.257,-0.018,3.6669312,-0.5156622,0.0572958
0.17,-0.258,0.469,-1.8907614,-4.0680018,0.2291832
0,0,0,0.0572958,0.4583664,0.3437748
0.003,0,0.013,-0.1718874,-0.286479,0.4010706
-0.004,-0.021,0.029,0.9167328,0.1145916,-0.4583664
0.033,-0.001,-0.039,-0.2291832,-0.7448454,-0.1718874
0.121,-0.256,-0.022,-0.8021412,-0.1718874,-0.1145916
0.172,-0.261,0.47,1.432395,-3.2658606,0
0,0,0,0.1718874,0.6875496,0.4583664
0.001,-0.001,0.011,-0.1145916,-0.286479,0.3437748
-0.009,-0.017,0.027,1.0886202,0,-0.6875496
0.035,-0.001,-0.037,-0.0572958,-0.572958,-0.2291832
0.114,-0.263,-0.026,-4.7555514,0.4583664,-0.3437748
0.178,-0.254,0.469,3.6669312,-2.2345362,-0.6302538
0,0,0,0.2291832,0.7448454,0.5156622
0.001,-0.002,0.009,0,-0.4010706,0.286479
-0.008,-0.018,0.025,1.145916,-0.3437748,-0.8021412
0.038,-0.002,-0.035,-0.0572958,-0.1145916,-0.2291832
0.119,-0.273,-0.024,-6.4171296,0.5156622,-0.7448454
0.184,-0.233,0.481,3.437748,-1.3750992,-1.7761698
0,0,0,0.2291832,0.7448454,0.4010706
0.004,-0.006,0.01,0,0.0572958,0.4583664
-0.005,-0.023,0.022,1.2605076,-0.7448454,-0.7448454
0.041,-0.003,-0.036,-0.0572958,0.4010706,-0.1145916
0.119,-0.286,-0.019,-4.5263682,0.4583664,-1.4896908
0.184,-0.21,0.497,0.6875496,-1.6042824,-2.6356068
0,0,0,0.2291832,0.572958,0.4583664
0.004,-0.003,0.002,0.2291832,0.3437748,0.4010706
-0.004,-0.02,0.021,1.432395,-1.0886202,-0.5156622
0.041,-0.005,-0.038,0,0.7448454,-0.1718874
0.117,-0.296,-0.017,-0.7448454,0.1145916,-1.7761698
0.17,-0.211,0.5,-3.5523396,-2.3491278,-3.4950438
0,0,0,0,0.4010706,0.286479
-0.003,-0.002,-0.002,0.4010706,0.4010706,0.3437748
-0.003,-0.019,0.02,1.6042824,-1.4896908,-0.4010706
0.038,-0.006,-0.038,0.1718874,0.7448454,-0.0572958
0.114,-0.29,-0.027,2.7501984,-0.2291832,-1.718874
0.161,-0.224,0.49,-7.734933,-3.437748,-3.8388186
0,0,0,0,0.4583664,0.2291832
-0.006,0,-0.002,0.2291832,0.1718874,0.286479
0,-0.018,0.021,1.718874,-1.8334656,-0.3437748
0.035,-0.003,-0.037,0.1145916,0.572958,0
0.103,-0.277,-0.023,4.870143,-1.2605076,-1.3178034
0.156,-0.239,0.484,-9.1100322,-3.8961144,-3.724227
0,0,0,0.0572958,0.1718874,0.1718874
-0.002,-0.003,-0.001,0,-0.286479,0.1718874
0.005,-0.016,0.022,1.7761698,-2.1772404,-0.4010706
0.031,0,-0.036,-0.1145916,0.3437748,0
0.112,-0.268,-0.013,3.3231564,-1.4896908,-0.8021412
0.156,-0.249,0.485,-8.6516658,-4.3544808,-2.9793816
0,0,0,0.1145916,0,0.2291832
0.001,-0.001,-0.002,0.1145916,-0.3437748,0.286479
0.006,-0.014,0.022,1.6615782,-2.291832,-0.572958
0.03,0,-0.036,-0.3437748,0.0572958,0.0572958
0.122,-0.266,-0.007,-0.1718874,-1.3178034,-0.286479
0.157,-0.253,0.493,-6.302538,-4.4117766,-2.005353
0,0,0,0.0572958,-0.2291832,0.2291832
0.003,0,0.001,0.0572958,-0.5156622,0.3437748
0.006,-0.012,0.022,1.5469866,-2.291832,-0.8021412
0.032,0.001,-0.036,-0.4010706,0,0
0.121,-0.269,-0.009,-4.5263682,-1.0886202,-0.1718874
0.167,-0.26,0.491,-2.1772404,-3.9534102,-1.3750992
0,0,0,0.1145916,-0.3437748,0.2291832
0.001,0.001,0.006,0.1718874,-0.5156622,0.286479
0.002,-0.01,0.022,1.3750992,-2.2345362,-1.0886202
0.032,0,-0.036,-0.1145916,-0.3437748,0.0572958
0.116,-0.277,-0.009,-6.3598338,-0.9740286,-0.572958
0.183,-0.262,0.474,2.5210152,-2.6929026,-0.9740286
0,0,0,0.1718874,-0.4583664,0.2291832
0,0,0.012,0.1718874,-0.5156622,0.2291832
0.002,-0.011,0.02,1.2032118,-2.0626488,-1.3178034
0.034,0,-0.038,-0.0572958,-0.1718874,0.1145916
0.115,-0.282,-0.01,-6.1306506,-0.572958,-0.9740286
0.182,-0.248,0.479,7.1046792,-0.9740286,-1.145916
0,0,0,0.1145916,-0.5156622,0.3437748
-0.002,-0.002,0.016,0.2291832,-0.6875496,0.2291832
0,-0.015,0.018,1.0886202,-1.8334656,-1.4896908
0.037,0,-0.039,0.1145916,0.286479,0.1718874
0.117,-0.291,-0.01,-3.8961144,-0.3437748,-1.432395
0.17,-0.233,0.488,8.5370742,-0.5156622,-1.2032118
0,0,0,0.1145916,-0.7448454,0.3437748
0,-0.001,0.017,0.1145916,-0.859437,0
-0.001,-0.016,0.018,1.0313244,-1.6615782,-1.5469866
0.039,-0.002,-0.039,0,0.5156622,0.1718874
0.117,-0.297,-0.015,0.4010706,-0.4583664,-1.5469866
0.156,-0.223,0.49,6.9900876,-1.0886202,-0.9740286
0,0,0,0.0572958,-0.6875496,0.2291832
0.003,-0.002,0.014,0.0572958,-0.859437,0
-0.002,-0.015,0.018,1.0313244,-1.432395,-1.432395
0.04,-0.003,-0.042,-0.1145916,0.5156622,0
0.119,-0.289,-0.024,3.6096354,-0.859437,-1.6042824
0.147,-0.223,0.49,3.6096354,-1.6615782,0
0,0,0,0.1145916,-0.5156622,0.1718874
0,-0.005,0.01,0.2291832,-0.6875496,-0.0572958
-0.003,-0.013,0.018,0.9167328,-1.2605076,-1.2032118
0.039,-0.005,-0.042,-0.1145916,0,0.1145916
0.118,-0.276,-0.023,4.297185,-1.2605076,-1.432395
0.154,-0.226,0.491,1.718874,-2.4064236,1.2605076
0,0,0,0.0572958,-0.3437748,0.1145916
0,-0.004,0.003,0.2291832,-0.572958,0
-0.003,-0.013,0.016,0.8021412,-1.0886202,-0.9740286
0.039,-0.004,-0.039,-0.1145916,-0.4010706,0.1145916
0.118,-0.272,-0.015,2.1199446,-1.2032118,-1.145916
0.166,-0.241,0.497,2.9793816,-2.9220858,2.7501984
0,0,0,0.0572958,-0.0572958,0.0572958
0.001,-0.004,0,0.2291832,-0.4583664,0
-0.007,-0.015,0.014,0.6875496,-0.9740286,-0.7448454
0.036,-0.005,-0.035,0,-0.7448454,0.1145916
0.112,-0.263,-0.013,-1.0886202,-1.145916,-0.9167328
0.177,-0.243,0.483,5.9587632,-2.6929026,4.1252976
0,0,0,0.1145916,-0.1718874,0
0.002,-0.003,-0.002,0.4583664,-0.4010706,0
-0.009,-0.014,0.014,0.572958,-0.9167328,-0.6302538
0.034,-0.005,-0.032,0.2291832,-0.572958,0.1145916
0.109,-0.27,-0.008,-5.443101,-1.0313244,-0.6302538
0.186,-0.24,0.462,8.7089616,-1.4896908,4.5263682
0,0,0,0.1718874,-0.3437748,0
0.003,0.001,-0.008,0.6302538,-0.2291832,0
-0.013,-0.01,0.014,0.4583664,-0.9167328,-0.6875496
0.034,-0.005,-0.033,0.3437748,-0.2291832,0.0572958
0.113,-0.285,-0.006,-6.9900876,-0.859437,-0.3437748
0.182,-0.217,0.459,8.7662574,-1.0313244,4.1825934
0,0,0,0.0572958,-0.1718874,0
0.002,0.003,-0.004,0.3437748,-0.286479,0
-0.013,-0.008,0.014,0.4010706,-1.0313244,-0.7448454
0.039,-0.004,-0.037,0.4010706,0,0.1718874
0.111,-0.292,-0.009,-5.3858052,-0.7448454,-0.0572958
0.17,-0.204,0.461,5.8441716,-1.0886202,3.4950438
0,0,0,0,-0.4010706,0
0.005,0.002,0,0.2291832,-0.1718874,-0.1145916
-0.009,-0.008,0.014,0.3437748,-1.2032118,-0.572958
0.038,0,-0.04,0.6875496,0.3437748,0.1718874
0.11,-0.302,-0.015,-1.6615782,-1.0313244,0.2291832
0.156,-0.205,0.471,1.3178034,-1.8334656,3.3804522
0,0,0,0,-0.286479,0
0.005,-0.001,-0.002,0.1145916,0,-0.1718874
-0.007,-0.01,0.015,0.2291832,-1.3178034,-0.2291832
0.035,0.002,-0.038,0.2291832,0.6302538,0.4010706
0.114,-0.3,-0.025,5.0993262,-1.5469866,0.9740286
0.156,-0.22,0.476,-1.2605076,-2.1772404,3.7815228
0,0,0,0,-0.2291832,0
0.004,-0.003,0.004,0.1718874,-0.286479,-0.1718874
-0.006,-0.011,0.015,0.1145916,-1.432395,0.286479
0.031,0,-0.037,-0.1145916,0.1718874,0.3437748
0.118,-0.279,-0.035,9.9694692,-2.4064236,1.2032118
0.164,-0.236,0.487,-0.6302538,-2.0626488,4.8128472
0,0,0,0,0.1145916,0
0.006,-0.003,0.007,0.2291832,0,0.0572958
-0.007,-0.006,0.016,0,-1.6042824,0.8021412
0.028,-0.002,-0.039,-0.0572958,-0.3437748,0.3437748
0.121,-0.26,-0.037,11.6310474,-3.3804522,1.7761698
0.17,-0.238,0.491,2.0626488,-1.718874,5.9014674
0,0,0,0.1718874,0.1145916,-0.0572958
0.004,0,0.007,0.1718874,0.4583664,0.1145916
-0.005,-0.009,0.017,-0.2291832,-1.7761698,1.0886202
0.028,-0.004,-0.039,-0.1145916,-0.7448454,0.4010706
0.118,-0.249,-0.034,10.0840608,-4.4117766,2.005353
0.17,-0.235,0.491,4.4117766,-2.005353,6.589017
0,0,0,0.1718874,0.1718874,-0.1718874
-0.003,0.001,0.009,0.2291832,0.2291832,0.0572958
0,-0.015,0.015,-0.4583664,-1.8334656,1.3178034
0.028,-0.005,-0.035,-0.0572958,-0.9740286,0.3437748
0.12,-0.239,-0.023,5.9014674,-4.8128472,2.1199446
0.169,-0.227,0.498,5.5576926,-2.005353,7.1046792
0,0,0,0.1145916,0.0572958,-0.1718874
-0.011,0,0.014,0.0572958,-0.1145916,0.1145916
0.003,-0.016,0.017,-0.6302538,-1.8334656,1.2605076
0.033,-0.004,-0.035,-0.0572958,-1.3178034,0.3437748
0.125,-0.237,-0.016,0.6302538,-4.8128472,1.7761698
0.159,-0.221,0.507,5.9014674,-2.4637194,7.6776372
0,0,0,0.2291832,-0.1718874,-0.2291832
-0.009,-0.004,0.011,0.0572958,-0.6875496,0
0.007,-0.01,0.02,-0.8021412,-1.6615782,1.0313244
0.039,-0.001,-0.039,0.1145916,-1.0886202,0.572958
0.122,-0.248,-0.014,-5.0993262,-3.8961144,0.9167328
0.16,-0.202,0.52,5.6722842,-3.0366774,8.880849
0,0,0,0.0572958,-0.0572958,-0.1718874
-0.005,0,0.009,0.0572958,-1.0313244,-0.1718874
0.013,-0.008,0.021,-0.9740286,-1.3178034,0.859437
0.041,0.001,-0.044,0.286479,-0.0572958,0.6302538
0.121,-0.261,-0.013,-7.3911582,-3.437748,0.0572958
0.164,-0.204,0.532,6.1306506,-3.7815228,9.9121734
0,0,0,0.1145916,-0.1718874,-0.1145916
-0.002,0,0.006,0.1718874,-0.572958,-0.1145916
0.016,-0.008,0.022,-1.145916,-0.7448454,0.9740286
0.041,0.003,-0.043,0,0.6302538,0.6302538
0.121,-0.281,-0.011,-6.589017,-2.8074942,-0.8021412
0.145,-0.207,0.546,8.1360036,-4.583664,11.9175264
0,0,0,0.0572958,0,-0.1145916
0,0,0.003,0.2291832,-0.3437748,-0.1145916
0.014,-0.016,0.019,-1.2032118,-0.0572958,1.2605076
0.039,-0.001,-0.041,-0.1718874,0.8021412,0.4583664
0.127,-0.293,-0.015,-1.7761698,-2.7501984,-1.8334656
0.139,-0.205,0.557,11.6883432,-5.156622,14.7250206
0,0,0,0.1718874,0,-0.0572958
0.003,-0.003,0,0.2291832,0,-0.0572958
0.011,-0.025,0.017,-1.145916,0.572958,1.6042824
0.033,-0.003,-0.039,-0.286479,0.6302538,0.3437748
0.129,-0.296,-0.016,3.437748,-2.7501984,-2.3491278
0.153,-0.189,0.558,15.2979786,-5.6722842,17.5325148
0,0,0,0.0572958,0.2291832,0
0.004,-0.006,-0.002,0,0.286479,0
0.007,-0.024,0.017,-0.9167328,1.2032118,2.005353
0.029,-0.004,-0.035,-0.3437748,0.4583664,0.3437748
0.125,-0.289,-0.017,7.3911582,-3.0366774,-2.4637194
0.149,-0.169,0.555,17.5898106,-6.9327918,20.2827132
0,0,0,0,0.4583664,0
0.005,-0.005,-0.004,0.0572958,0.4583664,0.2291832
0.002,-0.019,0.017,-0.572958,1.6042824,2.1772404
0.028,-0.006,-0.032,-0.286479,0.5156622,0.3437748
0.123,-0.271,-0.007,7.448454,-3.2085648,-2.8074942
0.132,-0.143,0.56,15.1260912,-8.6516658,23.6631654
0,0,0,0,0.9167328,0
0.004,-0.001,-0.003,0.0572958,0.7448454,0.4010706
0,-0.021,0.016,-0.2291832,1.8907614,2.1772404
0.029,-0.006,-0.032,-0.286479,0.9167328,0.4010706
0.119,-0.271,0.001,4.297185,-2.9793816,-2.7501984
0.111,-0.131,0.577,10.7143146,-11.4018642,27.9603504
0,0,0,0,0.859437,0
0,0.001,-0.002,0.1145916,1.2605076,0.4010706
0.003,-0.015,0.018,0,2.005353,2.0626488
0.029,-0.005,-0.036,0.0572958,0.859437,0.3437748
0.123,-0.268,0.001,-0.2291832,-2.291832,-2.291832
0.095,-0.126,0.592,6.589017,-14.5531332,32.4867186
0,0,0,-0.1718874,1.0313244,0
-0.004,0.003,0,0,1.3178034,0.4010706
0.008,-0.009,0.02,0.2291832,2.0626488,2.005353
0.029,-0.002,-0.038,0,1.2605076,0.4010706
0.125,-0.274,0.001,-6.016059,-1.9480572,-1.8907614
0.092,-0.116,0.591,3.3231564,-17.5898106,36.7266078
0,0,0,-0.1718874,1.0886202,0.0572958
-0.009,0.002,0.002,-0.0572958,1.0886202,0.2291832
0.01,-0.007,0.018,0.286479,2.1199446,2.1772404
0.032,0.001,-0.04,-0.0572958,1.0313244,0.4583664
0.12,-0.291,0.009,-9.5683986,-1.5469866,-1.6615782
0.116,-0.125,0.584,0.9167328,-21.0848544,41.0237928
0,0,0,-0.1145916,1.2605076,0
-0.008,0.001,0.002,-0.1145916,0.572958,0.1718874
0.01,-0.006,0.018,0.286479,2.1772404,2.4637194
0.034,0.003,-0.043,-0.1145916,1.2032118,0.3437748
0.12,-0.304,0.015,-9.2819196,-1.6042824,-1.2032118
0.128,-0.14,0.586,2.578311,-23.1475032,44.6334282
0,0,0,0,1.432395,0.1145916
-0.006,0.002,0,-0.1145916,0.4583664,0.1145916
0.009,-0.008,0.018,0.2291832,2.2345362,2.8074942
0.034,0.004,-0.042,-0.4010706,1.6042824,0.0572958
0.122,-0.31,0.019,-5.6149884,-1.718874,-0.6302538
0.16,-0.126,0.582,5.3858052,-23.8350528,47.3836266
0,0,0,0,1.718874,0.0572958
-0.004,0.003,0,-0.0572958,0.4583664,0.0572958
0.01,-0.009,0.016,0.1145916,2.2345362,3.0366774
0.031,0.001,-0.039,-0.6302538,1.6615782,-0.0572958
0.124,-0.313,0.021,-1.6042824,-2.1199446,0.1145916
0.148,-0.123,0.594,7.3338624,-24.8663772,50.3630082
0,0,0,0.1145916,1.3178034,0.1145916
-0.006,-0.001,0.002,-0.0572958,0.4583664,0.1145916
0.009,-0.017,0.013,0,2.2345362,3.0939732
0.028,-0.001,-0.04,-0.6302538,1.432395,-0.1718874
0.117,-0.313,0.023,2.8074942,-2.2345362,0.9740286
0.099,-0.124,0.617,8.4224826,-27.215505,52.7694318
0,0,0,0.0572958,1.2032118,0.2291832
-0.006,-0.003,0.001,-0.0572958,0.286479,0.1145916
0.014,-0.022,0.014,0,2.1199446,3.0366774
0.024,-0.003,-0.038,-0.6302538,1.2032118,-0.286479
0.118,-0.288,0.023,5.8441716,-2.6356068,2.4064236
0.068,-0.134,0.625,10.3705398,-30.2521824,56.436363
0,0,0,0.1145916,0.859437,0.1145916
-0.009,-0.005,0.003,0,0,0.1718874
0.021,-0.01,0.017,-0.1145916,1.8907614,3.0366774
0.02,-0.003,-0.034,-0.6302538,0.7448454,-0.4583664
0.125,-0.279,0.023,5.5576926,-2.5210152,3.437748
0.067,-0.129,0.61,15.5271618,-33.4034514,61.306506
0,0,0,0.0572958,0.6875496,0.1718874
-0.006,-0.004,0.004,-0.1145916,0,0.2291832
0.021,-0.007,0.019,-0.3437748,1.7761698,3.151269
0.019,-0.005,-0.033,-0.5156622,0.1145916,-0.4583664
0.128,-0.263,0.021,3.724227,-2.2345362,4.3544808
0.061,-0.13,0.601,19.8816426,-35.3515086,65.4890994
0,0,0,0.1145916,0.0572958,0.2291832
-0.003,-0.004,0.006,-0.0572958,0.1145916,0.3437748
0.018,-0.01,0.021,-0.6875496,1.6615782,3.3231564
0.023,-0.006,-0.032,-0.2291832,-0.1145916,-0.4583664
0.129,-0.257,0.021,-0.1145916,-1.8334656,4.9274388
0.061,-0.113,0.589,22.8610242,-37.24227,69.614397
0,0,0,0.0572958,-0.286479,0.286479
-0.002,0,0.007,-0.1718874,0.5156622,0.4583664
0.011,-0.007,0.021,-0.9740286,1.432395,3.3231564
0.027,0,-0.03,0.1145916,-0.1145916,-0.5156622
0.133,-0.259,0.02,-4.010706,-1.2032118,5.156622
0.075,-0.08,0.58,18.907614,-41.252976,73.9688778
0,0,0,0,-0.5156622,0.4010706
-0.004,0.003,0.008,-0.0572958,0.3437748,0.5156622
0.01,-0.008,0.021,-1.2605076,1.145916,2.9220858
0.031,0.001,-0.032,0,-0.2291832,-0.572958
0.134,-0.266,0.024,-5.6722842,-0.572958,4.8128472
0.091,-0.085,0.6,12.7769634,-45.550161,77.2920342
0,0,0,0,-0.6875496,0.4583664
-0.003,0.002,0.011,0,0.2291832,0.5156622
0.016,-0.013,0.019,-1.432395,0.7448454,2.291832
0.033,0.003,-0.037,-0.0572958,0.0572958,-0.572958
0.122,-0.278,0.027,-4.0680018,-0.1145916,4.010706
0.076,-0.113,0.633,8.1932994,-51.56622,81.0162612
0,0,0,0.0572958,-0.8021412,0.6302538
-0.001,0.001,0.014,0.1718874,0,0.5156622
0.022,-0.02,0.018,-1.432395,0.3437748,1.6042824
0.034,0.004,-0.038,-0.1145916,0.3437748,-0.572958
0.118,-0.276,0.026,-0.572958,0.1145916,3.3804522
0.057,-0.157,0.653,9.8548776,-57.4676874,84.9123756
0,0,0,0.1145916,-0.7448454,0.6875496
-0.003,-0.002,0.011,0.0572958,-0.4010706,0.3437748
0.025,-0.021,0.017,-1.2605076,0.0572958,0.9740286
0.034,0.003,-0.038,-0.2291832,0.1718874,-0.572958
0.125,-0.275,0.022,3.2085648,0.2291832,2.86479
0.05,-0.184,0.649,17.5898106,-61.592985,88.1782362
0,0,0,0.1718874,-0.7448454,0.6302538
-0.004,-0.005,0.013,0.0572958,-0.7448454,0.2291832
0.029,-0.023,0.017,-1.0313244,-0.1145916,0.4583664
0.031,0.001,-0.036,-0.3437748,-0.1145916,-0.5156622
0.137,-0.27,0.014,6.3598338,0.2291832,2.4637194
0.038,-0.184,0.628,29.220858,-65.603691,91.5586884
0,0,0,0.1718874,-0.1718874,0.6302538
-0.004,-0.007,0.01,0.1145916,-1.3178034,0.2291832
0.03,-0.019,0.018,-0.859437,-0.1718874,0
0.029,-0.002,-0.034,-0.4583664,-0.3437748,-0.5156622
0.132,-0.255,0.007,7.7922288,0.6875496,2.2345362
0.041,-0.173,0.6,36.0390582,-69.3852138,93.9078162
0,0,0,0.1145916,0.0572958,0.572958
-0.001,-0.005,0.002,0.2291832,-1.7761698,0.1718874
0.032,-0.009,0.02,-0.6302538,-0.1145916,-0.4010706
0.027,-0.005,-0.03,-0.5156622,-0.859437,-0.6302538
0.135,-0.245,0.008,5.8441716,0.8021412,2.1199446
0.047,-0.143,0.583,36.4401288,-72.9948492,96.4861272
0,0,0,0.1145916,0.2291832,0.572958
0,-0.002,-0.002,0.286479,-1.6615782,0.1145916
0.031,-0.005,0.02,-0.6302538,0.0572958,-0.9167328
0.024,-0.008,-0.034,-0.5156622,-1.3178034,-0.8021412
0.136,-0.242,0.013,1.3750992,1.718874,1.7761698
0.025,-0.137,0.597,31.6845774,-77.635809,100.6687206
0,0,0,0.1145916,0.0572958,0.572958
-0.001,0,-0.003,0.0572958,-1.6042824,0.1145916
0.029,-0.006,0.017,-0.6302538,0.3437748,-1.5469866
0.027,-0.006,-0.034,-0.4583664,-1.7761698,-0.6302538
0.134,-0.248,0.013,-3.0366774,2.4637194,1.3750992
0.006,-0.126,0.602,26.8144344,-81.4746276,104.9659056
0,0,0,0.0572958,-0.1718874,0.572958
0.003,0.001,-0.002,0.0572958,-1.6042824,0.2291832
0.03,-0.012,0.014,-0.6302538,0.7448454,-2.1772404
0.031,-0.002,-0.034,-0.3437748,-1.5469866,-0.572958
0.128,-0.255,0.011,-5.7868758,3.3804522,0.859437
-0.004,-0.121,0.589,22.345362,-85.4280378,109.8360486
0,0,0,0,-0.3437748,0.5156622
0.003,0.002,-0.001,0.2291832,-1.2605076,0.286479
0.027,-0.012,0.012,-0.572958,1.2605076,-2.7501984
0.035,0.002,-0.032,-0.286479,-1.2032118,-0.4010706
0.123,-0.269,0.012,-6.589017,3.8961144,0.2291832
-0.011,-0.136,0.565,17.8189938,-90.2981808,114.5343042
0,0,0,0,-0.1718874,0.572958
0.004,0.004,0.002,0.286479,-0.7448454,0.5156622
0.02,-0.015,0.01,-0.4583664,1.7761698,-3.2658606
0.04,0.002,-0.039,-0.0572958,-0.4010706,-0.4010706
0.121,-0.277,0.01,-5.0993262,4.3544808,-0.1145916
-0.035,-0.175,0.566,16.4438946,-94.7672532,118.2012354
0,0,0,0,-0.1145916,0.4583664
0.007,0.002,0.009,0,0,0.572958
0.013,-0.011,0.01,-0.3437748,2.1772404,-3.6096354
0.043,0.003,-0.041,0,0.286479,-0.5156622
0.125,-0.282,0.006,-2.0626488,4.583664,-0.3437748
-0.052,-0.213,0.546,17.7044022,-99.0644382,122.2119414
0,0,0,0.1145916,0.1145916,0.4583664
0.003,0,0.009,-0.0572958,0.1718874,0.4583664
0.005,-0.009,0.01,-0.1718874,2.4637194,-3.8961144
0.046,0.001,-0.043,-0.2291832,1.145916,-0.6302538
0.133,-0.28,-0.007,0.6302538,4.8128472,-0.4010706
-0.042,-0.239,0.53,20.1681216,-102.1584114,125.764281
0,0,0,0.2291832,0.1718874,0.286479
0,-0.003,0.01,-0.1145916,0.1145916,0.4010706
0.001,-0.008,0.011,-0.1145916,2.5210152,-4.0680018
0.046,-0.001,-0.044,-0.3437748,1.6042824,-0.8021412
0.129,-0.274,-0.019,3.0366774,4.5263682,-0.4583664
-0.057,-0.241,0.525,21.7151082,-105.5388636,129.3166206
0,0,0,0.286479,0.286479,0.4010706
0,-0.007,0.003,-0.1718874,0.572958,0.4583664
-0.001,-0.003,0.011,-0.2291832,2.4637194,-4.0680018
0.046,-0.002,-0.044,-0.3437748,1.8334656,-0.859437
0.124,-0.268,-0.024,3.5523396,4.4690724,-0.4010706
-0.058,-0.246,0.508,21.7151082,-109.0339074,132.926256
0,0,0,0.4583664,0.4010706,0.3437748
0.001,-0.005,-0.007,-0.1145916,0.6875496,0.5156622
-0.005,-0.003,0.011,-0.4583664,2.291832,-3.9534102
0.044,-0.004,-0.041,-0.5156622,2.1199446,-1.0313244
0.123,-0.259,-0.027,2.291832,4.1825934,-0.572958
-0.028,-0.232,0.475,20.7410796,-111.2684436,136.9942578
0,0,0,0.6875496,0.5156622,0.4583664
0,-0.002,-0.011,-0.1145916,0.8021412,0.572958
-0.004,-0.004,0.01,-0.8021412,1.9480572,-3.8961144
0.043,-0.003,-0.04,-0.8021412,2.4637194,-1.145916
0.121,-0.265,-0.023,-0.7448454,4.0680018,-0.572958
-0.013,-0.209,0.459,17.8189938,-112.6435428,140.7184848
0,0,0,0.859437,0.6875496,0.4010706
0.002,0,-0.012,-0.1145916,0.8021412,0.4583664
-0.001,-0.004,0.009,-1.145916,1.6615782,-3.7815228
0.042,-0.002,-0.04,-0.9167328,2.578311,-1.145916
0.118,-0.271,-0.022,-3.151269,3.7815228,-0.4010706
-0.014,-0.221,0.463,12.891555,-114.1905294,143.5832748
0,0,0,0.8021412,0.7448454,0.3437748
0.005,0.001,-0.009,-0.1145916,0.8021412,0.5156622
0,-0.006,0.009,-1.432395,1.3750992,-3.6669312
0.041,0,-0.038,-1.0886202,3.151269,-1.2605076
0.115,-0.271,-0.023,-4.6982556,3.7815228,-0.2291832
-0.054,-0.222,0.472,7.7922288,-116.883432,148.0523472
0,0,0,0.859437,0.8021412,0.3437748
0.008,0.006,-0.002,-0.2291832,1.0886202,0.5156622
0.004,-0.008,0.008,-1.6615782,1.2032118,-3.6096354
0.039,0,-0.035,-1.2605076,3.7815228,-1.432395
0.117,-0.279,-0.024,-5.3285094,3.6669312,0.1718874
-0.059,-0.229,0.447,3.151269,-118.4877144,151.3182078
0,0,0,0.6302538,1.0313244,0.3437748
0.009,0.006,0.004,-0.3437748,1.4896908,0.3437748
0.011,-0.009,0.009,-1.8334656,1.2605076,-3.437748
0.036,0,-0.037,-1.2032118,4.1252976,-1.4896908
0.12,-0.288,-0.029,-4.3544808,3.8388186,0.572958
-0.061,-0.234,0.427,-3.8961144,-120.4930674,154.8132516
0,0,0,0.4010706,1.3750992,0.286479
0.006,0,0.011,-0.4010706,1.718874,0.4010706
0.018,-0.007,0.01,-2.005353,1.4896908,-3.0939732
0.034,-0.002,-0.04,-1.0886202,4.583664,-1.3750992
0.115,-0.288,-0.036,-2.2345362,3.3231564,0.9740286
-0.053,-0.27,0.402,-9.1100322,-121.6389834,157.1623794
0,0,0,0.4010706,1.7761698,0.3437748
0.004,-0.005,0.008,-0.4010706,2.1772404,0.4010706
0.017,-0.006,0.01,-2.1199446,1.8907614,-2.4637194
0.033,-0.001,-0.039,-1.2032118,4.8128472,-1.2605076
0.115,-0.284,-0.034,-0.1145916,2.578311,1.2605076
-0.027,-0.282,0.387,-11.1153852,-121.4098002,159.3969156
0,0,0,0.4583664,1.5469866,0.2291832
0.002,-0.006,0.003,-0.4583664,2.291832,0.286479
0.013,-0.011,0.01,-2.2345362,2.4064236,-1.8334656
0.033,-0.004,-0.039,-1.3178034,4.4690724,-1.2605076
0.11,-0.28,-0.031,1.718874,2.0626488,1.718874
-0.043,-0.246,0.361,-11.2872726,-121.3525044,162.6627762
0,0,0,0.286479,1.6615782,0.1718874
-0.005,-0.008,0,-0.4583664,2.291832,0.286479
0.01,-0.013,0.009,-2.3491278,2.9220858,-1.2605076
0.034,-0.007,-0.039,-1.2605076,3.8961144,-1.2605076
0.105,-0.271,-0.027,1.718874,1.4896908,2.291832
-0.024,-0.248,0.321,-13.6364004,-121.5816876,164.2670586
0,0,0,0.2291832,1.7761698,0.1145916
-0.011,-0.002,-0.005,-0.1145916,1.5469866,0.3437748
0.004,-0.015,0.011,-2.4637194,3.3804522,-0.8021412
0.034,-0.006,-0.036,-1.3178034,3.7815228,-1.2605076
0.104,-0.269,-0.025,0.0572958,0.9740286,3.3231564
0.002,-0.316,0.311,-16.5011904,-121.6962792,162.8346636
0,0,0,0,1.718874,0
-0.009,0.001,-0.009,-0.0572958,0.9740286,0.2291832
0.001,-0.01,0.013,-2.578311,3.6669312,-0.6302538
0.031,-0.004,-0.033,-1.2032118,3.7815228,-1.432395
0.099,-0.264,-0.028,-1.6042824,0.8021412,4.297185
-0.022,-0.343,0.317,-18.3919518,-122.6703078,161.860635
0,0,0,0,1.7761698,0
-0.004,0.004,-0.007,-0.286479,0.7448454,0.2291832
-0.005,-0.007,0.017,-2.9220858,3.724227,-0.572958
0.028,-0.003,-0.028,-0.9740286,3.2085648,-1.4896908
0.099,-0.263,-0.029,-3.0366774,0.6302538,4.9274388
-0.077,-0.319,0.338,-18.9649098,-124.045407,164.2097628
0,0,0,-0.1718874,1.6615782,0
0.001,0.005,0,-0.6302538,0.4010706,0.1145916
-0.011,-0.007,0.019,-3.2085648,3.5523396,-0.6302538
0.025,-0.002,-0.03,-0.859437,2.6356068,-1.3750992
0.106,-0.266,-0.029,-3.0939732,0.286479,5.5576926
-0.104,-0.309,0.345,-20.3973048,-125.9934642,166.8453696
0,0,0,-0.3437748,1.6615782,0
0.005,0.004,0.008,-0.9167328,0.286479,0
-0.014,-0.005,0.021,-3.6669312,3.2085648,-0.7448454
0.025,-0.002,-0.036,-0.3437748,2.6929026,-1.2032118
0.111,-0.266,-0.03,-1.5469866,-0.2291832,5.8441716
-0.097,-0.317,0.341,-20.2254174,-127.8269298,169.1372016
0,0,0,-0.1718874,1.145916,0.0572958
0.008,0.001,0.009,-0.9167328,0.5156622,0.1145916
-0.014,-0.007,0.022,-4.1825934,2.578311,-0.7448454
0.026,0,-0.039,0,1.8907614,-0.9167328
0.114,-0.26,-0.03,-0.1718874,-0.9167328,5.8441716
-0.098,-0.337,0.325,-19.8243468,-128.91555,170.9706672
0,0,0,-0.2291832,0.4583664,0.1718874
0.009,-0.002,0.014,-1.0313244,0.6875496,0.286479
-0.014,-0.017,0.022,-4.583664,1.8334656,-0.6302538
0.028,0.001,-0.037,0,1.145916,-1.0313244
0.114,-0.253,-0.025,0.4583664,-1.3750992,5.7868758
-0.107,-0.357,0.311,-18.3919518,-128.8582542,172.6895412
0,0,0,-0.4583664,0.0572958,0.1145916
0.005,-0.009,0.017,-1.0313244,0.6302538,0.286479
-0.014,-0.022,0.024,-4.8128472,0.9740286,-0.4010706
0.029,0.001,-0.04,-0.2291832,0.8021412,-1.0886202
0.113,-0.248,-0.022,0,-1.432395,5.8441716
-0.141,-0.349,0.304,-18.5065434,-130.0041702,175.3824438
0,0,0,-0.286479,-0.0572958,-0.1145916
0,-0.009,0.017,-0.7448454,0.3437748,0.1718874
-0.013,-0.02,0.025,-4.9274388,0.1718874,-0.1718874
0.033,0,-0.039,-0.4010706,0.4010706,-1.2605076
0.113,-0.244,-0.025,-0.8021412,-1.3178034,5.3858052
-0.122,-0.381,0.309,-20.1681216,-131.6084526,175.038669
0,0,0,-0.4583664,-0.1145916,-0.3437748
0,-0.003,0.014,-0.6875496,0,0.0572958
-0.011,-0.023,0.026,-4.870143,-0.572958,0
0.037,-0.002,-0.038,-0.3437748,0,-1.145916
0.111,-0.248,-0.024,-1.0313244,-1.6042824,4.870143
-0.214,-0.31,0.366,-20.626488,-135.3899754,179.1639666
0,0,0,-0.5156622,0,-0.572958
-0.001,0.001,0.008,-0.572958,-0.4010706,-0.1145916
-0.009,-0.025,0.027,-4.6982556,-1.2032118,0
0.04,0,-0.036,-0.1718874,-0.0572958,-0.9740286
0.115,-0.251,-0.018,0,-1.718874,4.1252976
-0.234,-0.336,0.334,-27.3873924,-141.4060344,181.6849818
0,0,0,-0.6302538,-0.286479,-0.7448454
0.001,0.002,0.005,-0.4583664,-0.8021412,-0.3437748
-0.005,-0.024,0.027,-4.4690724,-1.718874,-0.1145916
0.041,0.005,-0.033,-0.4583664,0,-0.572958
0.121,-0.253,-0.016,1.6615782,-1.8334656,3.151269
-0.143,-0.393,0.295,-31.6845774,-146.2761774,181.1693196
0,0,0,-0.4583664,-1.0886202,-0.859437
0.004,0,0.006,-0.3437748,-0.9167328,-0.572958
-0.001,-0.025,0.028,-4.2398892,-2.005353,-0.4010706
0.04,0.004,-0.033,-0.6302538,-0.1145916,-0.4583664
0.111,-0.246,-0.016,2.7501984,-1.9480572,2.2345362
-0.167,-0.419,0.249,-35.3515086,-151.6046868,181.7422776
0,0,0,-0.4010706,-1.432395,-0.7448454
0.004,-0.001,0.007,-0.3437748,-0.859437,-0.572958
0.003,-0.026,0.028,-3.8961144,-2.005353,-0.6302538
0.038,0.003,-0.038,-0.9167328,-0.0572958,-0.4010706
0.106,-0.234,-0.013,1.3178034,-1.6615782,1.7761698
-0.092,-0.515,0.185,-37.528749,-153.839223,179.1639666
0,0,0,-0.286479,-1.6615782,-0.572958
0.004,-0.005,0.008,-0.2291832,-0.9740286,-0.6302538
0.001,-0.027,0.028,-3.6096354,-1.7761698,-0.7448454
0.037,-0.002,-0.04,-1.145916,-0.1718874,-0.4583664
0.115,-0.238,-0.005,-1.432395,-1.2032118,1.6042824
-0.01,-0.563,0.148,-35.523396,-153.7246314,177.1013178
0,0,0,-0.3437748,-1.7761698,-0.4583664
0.001,-0.008,0.011,-0.4010706,-0.6875496,-0.6302538
0.003,-0.032,0.028,-3.2658606,-1.4896908,-0.859437
0.036,-0.005,-0.038,-1.2605076,-0.286479,-0.5156622
0.109,-0.24,-0.002,-4.1825934,-0.4583664,1.3750992
-0.027,-0.562,0.139,-33.5753388,-153.0943776,176.8721346
0,0,0,-0.4583664,-1.6042824,-0.6302538
0,-0.011,0.013,-0.4583664,-0.9740286,-0.4583664
0.002,-0.03,0.029,-2.9793816,-1.0313244,-0.859437
0.03,-0.008,-0.033,-1.145916,-1.0313244,-0.4583664
0.104,-0.249,-0.005,-5.3858052,0,0.9740286
0.005,-0.595,0.124,-29.793816,-150.2868834,175.4397396
0,0,0,-0.7448454,-1.5469866,-0.6875496
0.002,-0.008,0.006,-0.1145916,-1.145916,-0.4010706
-0.002,-0.025,0.027,-2.6356068,-0.572958,-0.7448454
0.026,-0.008,-0.032,-1.0886202,-1.0313244,-0.2291832
0.103,-0.265,-0.002,-4.010706,0,0.4010706
0.013,-0.6,0.135,-25.0955604,-147.0210228,173.6635698
0,0,0,-0.9740286,-1.3750992,-0.8021412
0.006,-0.001,0.002,0,-1.432395,-0.4583664
-0.006,-0.028,0.026,-2.291832,-0.1145916,-0.6302538
0.027,-0.006,-0.03,-1.0886202,-0.7448454,0.0572958
0.103,-0.264,-0.001,-0.2291832,0,-0.3437748
-0.015,-0.596,0.144,-25.7258142,-146.1615858,170.8560756
0,0,0,-1.0886202,-1.3178034,-0.9167328
0.003,0.003,0,0,-1.3750992,-0.3437748
-0.009,-0.025,0.026,-1.9480572,0.1718874,-0.572958
0.026,-0.003,-0.029,-0.9167328,-1.0313244,0.2291832
0.103,-0.262,-0.003,3.0939732,-0.3437748,-0.9740286
-0.018,-0.605,0.157,-27.7311672,-146.6199522,168.736131
0,0,0,-1.0886202,-1.3178034,-0.9740286
0.002,0.004,-0.001,0.1145916,-1.2032118,-0.5156622
-0.01,-0.022,0.027,-1.6042824,0.4010706,-0.5156622
0.023,-0.001,-0.026,-0.6302538,-1.3750992,0.6875496
0.102,-0.255,-0.007,4.297185,-0.2291832,-1.3178034
-0.019,-0.639,0.15,-27.8457588,-145.1875572,165.7567494
0,0,0,-1.0886202,-1.432395,-1.0313244
0,0.002,0,0.2291832,-1.2605076,-0.7448454
-0.011,-0.021,0.026,-1.3750992,0.572958,-0.5156622
0.024,0.002,-0.025,-0.4583664,-1.6042824,0.9167328
0.103,-0.244,-0.007,2.9220858,-0.2291832,-1.432395
-0.015,-0.62,0.16,-29.3354496,-144.2135286,162.147114
0,0,0,-1.0313244,-1.3750992,-1.0886202
-0.002,0,0.003,0.1718874,-1.3750992,-0.7448454
-0.015,-0.02,0.025,-1.0886202,0.6302538,-0.572958
0.026,0.004,-0.029,-0.572958,-2.005353,1.0313244
0.105,-0.243,-0.007,-2.005353,0.2291832,-1.3178034
-0.045,-0.646,0.14,-28.934379,-142.4373588,159.4542114
0,0,0,-0.8021412,-1.432395,-1.0886202
-0.001,0.001,0.005,0.1145916,-1.3178034,-0.9167328
-0.018,-0.02,0.024,-0.9167328,0.572958,-0.6875496
0.033,0.004,-0.031,-0.3437748,-2.578311,0.9167328
0.109,-0.245,-0.014,-5.72958,0.572958,-1.2032118
0.013,-0.692,0.104,-29.507337,-140.8330764,155.1570264
0,0,0,-0.9740286,-1.3178034,-1.0313244
-0.001,0.002,0.008,0.1718874,-0.859437,-0.9740286
-0.019,-0.021,0.022,-0.6875496,0.4010706,-0.859437
0.041,0.006,-0.038,-0.6302538,-1.7761698,0.8021412
0.107,-0.259,-0.015,-8.3651868,0.9167328,-1.432395
-0.04,-0.68,0.107,-27.501984,-138.7704276,151.547391
0,0,0,-0.7448454,-1.2605076,-0.9167328
-0.001,0,0.011,0.286479,-0.8021412,-0.9167328
-0.018,-0.021,0.021,-0.5156622,0.1145916,-1.0313244
0.043,0.005,-0.038,-1.145916,-0.7448454,0.7448454
0.107,-0.275,-0.014,-8.021412,1.0313244,-1.8907614
-0.041,-0.733,0.086,-25.3820394,-136.077525,145.9896984
0,0,0,-0.7448454,-1.2605076,-0.859437
0.001,-0.004,0.007,0.4583664,-0.4583664,-0.9167328
-0.018,-0.023,0.019,-0.286479,-0.1718874,-1.2032118
0.039,0,-0.035,-1.3750992,0.0572958,0.9740286
0.112,-0.284,-0.015,-5.5576926,0.8021412,-2.291832
0.008,-0.745,0.089,-17.1314442,-130.6917198,142.5519504
0,0,0,-0.6875496,-1.3750992,-0.8021412
0.001,-0.008,0.001,0.5156622,-0.3437748,-0.9167328
-0.012,-0.018,0.019,-0.0572958,-0.5156622,-1.2605076
0.032,-0.006,-0.032,-1.2032118,0.1718874,1.2032118
0.116,-0.29,-0.016,-2.3491278,0.4583664,-2.6356068
-0.04,-0.713,0.085,-12.8342592,-126.910197,139.8590478
0,0,0,-0.572958,-1.2032118,-0.8021412
0.002,-0.01,-0.003,0.4010706,-0.286479,-0.7448454
-0.005,-0.017,0.016,0.0572958,-0.7448454,-1.0886202
0.024,-0.007,-0.03,-0.8021412,0.4583664,1.432395
0.105,-0.29,-0.014,1.0313244,0.2291832,-2.5210152
-0.046,-0.713,0.068,-12.6623718,-123.18597,134.8170174
0,0,0,-0.4583664,-0.9740286,-0.8021412
0.001,-0.008,-0.006,0.5156622,-0.6302538,-0.6302538
0,-0.017,0.016,0.3437748,-0.859437,-0.7448454
0.023,-0.004,-0.026,-0.7448454,0,1.5469866
0.097,-0.283,-0.017,3.3231564,-0.1718874,-2.0626488
-0.024,-0.732,0.099,-13.178034,-120.0919968,128.5144794
0,0,0,-0.5156622,-0.4583664,-0.9167328
-0.001,-0.001,-0.001,0.8021412,-0.572958,-0.6302538
0.001,-0.01,0.016,0.6302538,-0.8021412,-0.286479
0.024,-0.002,-0.024,-0.7448454,-0.8021412,1.6042824
0.1,-0.272,-0.02,2.86479,-0.4583664,-1.6042824
-0.062,-0.746,0.131,-10.599723,-116.5396572,121.2379128
0,0,0,-0.5156622,-0.1145916,-0.9740286
0,0.002,0,1.0886202,-0.4583664,-0.8021412
-0.002,-0.013,0.014,0.9740286,-0.6302538,0
0.022,0.001,-0.026,-0.8021412,-1.5469866,1.4896908
0.11,-0.276,-0.016,0.286479,-0.4583664,-1.0886202
-0.062,-0.763,0.175,-6.7036086,-113.0446134,114.5343042
0,0,0,-0.286479,0.4010706,-1.0313244
-0.005,0.001,0.001,1.145916,0,-1.0313244
-0.002,-0.016,0.013,1.3178034,-0.4010706,0
0.024,0,-0.03,-0.9167328,-1.3178034,1.145916
0.109,-0.272,-0.022,-2.1199446,-0.3437748,-0.6875496
-0.049,-0.721,0.198,-1.3178034,-109.7787528,112.3570638
0,0,0,-0.0572958,0.572958,-1.0313244
-0.009,-0.001,0.004,0.8021412,-0.1145916,-1.2032118
-0.001,-0.015,0.012,1.6615782,-0.1718874,-0.1145916
0.028,-0.001,-0.036,-0.8021412,-1.4896908,0.859437
0.106,-0.273,-0.024,-4.9274388,-0.1718874,-0.7448454
-0.063,-0.65,0.174,2.4064236,-105.5961594,105.99723
0,0,0,-0.1145916,0.1145916,-0.9740286
-0.006,-0.005,0,0.572958,0,-1.145916
0.002,-0.009,0.011,1.9480572,0,-0.3437748
0.033,-0.002,-0.037,-0.3437748,-1.3750992,0.859437
0.111,-0.287,-0.019,-7.6203414,0.0572958,-0.4583664
0.012,-0.766,0.151,3.724227,-102.1584114,102.2157072
0,0,0,-0.1145916,-0.4010706,-0.7448454
-0.002,-0.002,-0.004,0.5156622,0,-0.859437
0.007,-0.014,0.008,2.291832,0.3437748,-0.4583664
0.038,0,-0.037,-0.286479,-0.859437,0.9167328
0.102,-0.294,-0.013,-7.448454,0.1718874,-0.3437748
0.007,-0.816,0.063,12.318597,-93.2202666,96.8871978
0,0,0,0,-0.7448454,-0.572958
-0.005,0.001,-0.006,0.6302538,0.2291832,-0.6875496
0.007,-0.014,0.005,2.6356068,0.7448454,-0.3437748
0.038,-0.001,-0.034,-0.4010706,-0.3437748,0.9167328
0.1,-0.298,-0.007,-6.8182002,0.2291832,0.2291832
0.057,-0.88,-0.04,15.6417534,-85.1415588,89.5533354
0,0,0,0,-0.7448454,-0.6302538
-0.005,0.002,-0.004,0.6875496,0.286479,-0.4010706
0.004,-0.007,0.006,2.86479,1.145916,-0.0572958
0.04,-0.005,-0.027,-0.5156622,-0.2291832,0.8021412
0.1,-0.304,-0.011,-4.870143,0.4010706,0.9740286
0.083,-0.909,-0.102,18.3919518,-77.5785132,81.5892192
0,0,0,-0.1718874,-0.4010706,-0.6302538
-0.002,0.002,-0.002,0.6302538,0.4010706,-0.4583664
0,-0.004,0.004,3.0366774,1.4896908,0.1145916
0.035,-0.006,-0.027,-0.3437748,0.0572958,0.572958
0.092,-0.304,-0.017,-0.4583664,0,1.4896908
0.091,-0.881,-0.103,17.1314442,-72.0781164,72.9948492
0,0,0,-0.0572958,-0.2291832,-0.6302538
-0.004,0.002,0.002,0.572958,0.1718874,-0.572958
0,-0.001,0.004,3.0366774,1.8334656,0.286479
0.028,-0.004,-0.027,-0.1718874,0.4583664,0.4583664
0.09,-0.288,-0.022,2.9220858,-0.6875496,1.7761698
0.108,-0.867,-0.047,13.5218088,-66.463128,62.3378304
0,0,0,0,0.1145916,-0.572958
-0.003,0.002,0.004,0.2291832,0.1718874,-0.6302538
0,0.001,0.005,2.86479,2.1199446,0.4583664
0.021,-0.005,-0.03,-0.1145916,0.1718874,0.4010706
0.108,-0.269,-0.03,2.86479,-1.5469866,1.718874
0.14,-0.909,-0.033,8.880849,-59.9887026,50.3057124
0,0,0,0,0.2291832,-0.572958
-0.005,0,0.007,0,0,-0.859437
-0.001,0.003,0.007,2.4064236,2.4064236,0.572958
0.016,-0.006,-0.037,0.1145916,0.286479,0.286479
0.112,-0.244,-0.036,-2.0626488,-1.7761698,1.7761698
0.17,-0.941,-0.062,7.3911582,-53.5142772,39.9924684
0,0,0,0,0.3437748,-0.4010706
-0.003,-0.002,0.01,-0.2291832,-0.1718874,-0.859437
-0.002,0,0.006,1.7761698,2.6356068,0.6302538
0.017,-0.005,-0.041,0.1145916,0.3437748,0.2291832
0.109,-0.253,-0.02,-10.313244,-1.2605076,1.6042824
0.189,-0.972,-0.136,8.1360036,-44.5761324,28.361421
0,0,0,-0.2291832,0.5156622,-0.3437748
0.003,-0.003,0.002,-0.286479,0,-0.572958
-0.004,0.001,0.009,1.145916,2.7501984,0.7448454
0.019,-0.005,-0.042,0.0572958,-0.1718874,0.2291832
0.092,-0.285,0.01,-15.0687954,-0.4583664,1.3750992
0.196,-0.971,-0.237,8.307891,-30.653253,14.8396122
0,0,0,-0.4010706,0.1145916,-0.4010706
0,0,-0.002,0,0.4010706,-0.2291832
-0.006,0.004,0.011,0.4010706,2.7501984,0.8021412
0.022,-0.003,-0.04,0.0572958,-0.3437748,0.286479
0.081,-0.292,0.011,-13.464513,0,1.4896908
0.177,-0.982,-0.277,5.5003968,-18.334656,1.4896908
0,0,0,-0.6302538,-0.0572958,-0.3437748
-0.006,0.004,0,0,0.4583664,-0.1145916
-0.011,-0.001,0.014,-0.2291832,2.6356068,0.7448454
0.025,0,-0.039,0.0572958,-0.4010706,0.4010706
0.078,-0.293,0.004,-11.1153852,0.2291832,2.4064236
0.166,-0.922,-0.234,-0.7448454,-5.2139178,-12.2040054
0,0,0,-0.8021412,-0.0572958,-0.3437748
-0.007,0.007,0.003,0.0572958,-0.1145916,0
-0.017,-0.003,0.017,-0.9740286,2.291832,0.572958
0.027,0,-0.041,0.1718874,0,0.5156622
0.076,-0.329,0.017,-4.1252976,0,3.0939732
0.139,-0.853,-0.172,-5.443101,9.3965112,-24.2361234
0,0,0,-0.8021412,0.286479,-0.1718874
-0.004,0.007,0.001,0.3437748,-0.0572958,0
-0.026,-0.005,0.022,-1.8334656,1.7761698,0.286479
0.027,0.002,-0.037,0.286479,-0.0572958,0.3437748
0.086,-0.301,0.007,9.6829902,-1.0313244,3.8961144
0.108,-0.773,-0.132,-8.59437,20.5691922,-32.8877892
0,0,0,-0.7448454,0.4583664,-0.2291832
-0.007,0.004,0.005,0.0572958,0.4583664,-0.286479
-0.031,-0.005,0.026,-2.7501984,1.0313244,-0.0572958
0.024,0.001,-0.032,0.5156622,-0.0572958,0.3437748
0.094,-0.266,-0.016,16.1001198,-1.8334656,3.8961144
0.105,-0.737,-0.104,-12.1467096,33.9191136,-41.539455
0,0,0,-0.5156622,0.6875496,-0.1145916
-0.011,-0.002,0.009,-0.1718874,0.4583664,-0.4010706
-0.03,-0.013,0.027,-3.6669312,0.0572958,-0.572958
0.017,0,-0.029,0.6875496,-0.286479,0.2291832
0.101,-0.251,-0.028,18.048177,-3.151269,3.8388186
0.103,-0.745,-0.09,-10.886202,44.5188366,-47.269035
0,0,0,-0.4583664,0.3437748,-0.1145916
-0.009,-0.007,0.003,-0.1718874,-0.0572958,-0.4010706
-0.027,-0.021,0.03,-4.583664,-1.0313244,-0.9167328
0.015,-0.001,-0.026,0.9167328,-0.9740286,0
0.105,-0.228,-0.021,15.9282324,-4.010706,3.9534102
0.111,-0.768,-0.078,-3.151269,57.1239126,-52.4829528
0,0,0,-0.5156622,0,0
-0.003,-0.005,-0.003,0,-0.286479,-0.286479
-0.022,-0.025,0.033,-5.3285094,-2.2345362,-1.0886202
0.016,-0.007,-0.021,0.8021412,-1.6615782,0.1145916
0.113,-0.202,-0.019,8.9954406,-3.8388186,4.3544808
0.121,-0.792,-0.071,6.1879464,70.8749046,-58.9000824
0,0,0,-0.8021412,-0.5156622,-0.0572958
-0.002,-0.005,-0.002,-0.0572958,-0.3437748,-0.1145916
-0.017,-0.026,0.035,-5.9014674,-3.3231564,-1.0313244
0.016,-0.012,-0.014,0.859437,-2.005353,0.2291832
0.114,-0.2,-0.019,-0.859437,-3.151269,4.9847346
0.119,-0.819,-0.065,11.9175264,79.8130494,-65.2599162
0,0,0,-1.145916,-0.9740286,-0.0572958
-0.003,-0.003,0.001,0.0572958,-0.572958,0
-0.013,-0.026,0.034,-6.1879464,-4.297185,-0.6302538
0.014,-0.012,-0.012,1.2605076,-2.4637194,0.3437748
0.11,-0.229,-0.01,-11.1153852,-2.6356068,5.3858052
0.12,-0.877,-0.09,12.7769634,88.6938984,-74.7137232
0,0,0,-1.5469866,-1.6042824,0.0572958
-0.004,0.002,0.004,0.286479,-0.6302538,0.1145916
-0.009,-0.03,0.031,-6.1306506,-5.0993262,-0.2291832
0.014,-0.006,-0.016,1.718874,-2.9220858,0.3437748
0.113,-0.234,-0.007,-12.8342592,-2.3491278,5.6149884
0.136,-0.896,-0.124,7.9641162,95.2256196,-84.797784
0,0,0,-1.5469866,-1.8334656,0.1718874
-0.006,0.002,0.006,0.5156622,-1.0313244,0.0572958
-0.006,-0.042,0.023,-5.6149884,-5.6722842,0.1145916
0.016,0.003,-0.021,1.7761698,-2.9793816,0.1145916
0.112,-0.244,-0.005,-11.172681,-2.1772404,5.5003968
0.152,-0.846,-0.142,-1.3750992,99.981171,-92.5900128
0,0,0,-1.3178034,-1.8907614,0.3437748
-0.008,0.002,0.01,0.5156622,-1.718874,-0.0572958
-0.003,-0.045,0.018,-4.583664,-6.0733548,0.5156622
0.015,0.007,-0.022,1.4896908,-3.2658606,-0.1718874
0.115,-0.262,0,-4.8128472,-2.6929026,5.2139178
0.126,-0.793,-0.097,-14.7823164,103.3043274,-100.554129
0,0,0,-1.145916,-1.7761698,0.3437748
-0.009,0.002,0.015,0.5156622,-1.9480572,-0.1718874
0.004,-0.041,0.015,-3.3231564,-6.302538,0.859437
0.015,0.012,-0.021,1.3750992,-4.3544808,-0.5156622
0.12,-0.254,-0.005,2.291832,-3.6096354,4.6409598
0.1,-0.801,-0.003,-22.6891368,105.137793,-107.8879914
0,0,0,-0.859437,-1.3750992,0.3437748
-0.009,0,0.017,0.4583664,-2.3491278,-0.1718874
0.013,-0.027,0.014,-1.8334656,-6.2452422,1.2032118
0.013,0.011,-0.022,0.9167328,-5.6722842,-0.859437
0.12,-0.237,-0.008,6.4171296,-3.8388186,3.9534102
0.072,-0.826,0.108,-23.8350528,106.6274838,-114.0759378
0,0,0,-0.4583664,-1.3178034,0.2291832
-0.007,0,0.016,0.5156622,-2.4637194,-0.1718874
0.02,-0.02,0.014,-0.286479,-5.9014674,1.4896908
0.016,0.005,-0.025,0.5156622,-6.2452422,-0.859437
0.112,-0.223,-0.004,6.4744254,-3.8388186,3.2085648
0.035,-0.813,0.215,-15.9282324,109.8360486,-122.2119414
0,0,0,-0.4583664,-0.859437,0.286479
-0.004,0,0.016,0.5156622,-2.2345362,-0.1718874
0.025,-0.018,0.012,1.0313244,-5.3285094,1.6615782
0.025,0.001,-0.026,0.7448454,-6.5317212,-0.572958
0.107,-0.216,-0.002,3.724227,-3.3231564,2.7501984
0.04,-0.79,0.243,-4.4690724,113.732163,-127.9415214
0,0,0,-0.1718874,-0.4010706,0.2291832
-0.004,-0.004,0.011,0.572958,-1.8334656,0
0.028,-0.016,0.009,2.3491278,-4.4690724,1.9480572
0.033,-0.001,-0.024,0.7448454,-5.6722842,-0.286479
0.109,-0.21,0,-1.3178034,-2.6929026,2.4064236
0.017,-0.762,0.192,6.3598338,118.2012354,-132.8116644
0,0,0,0.0572958,-0.1718874,0.3437748
-0.002,-0.008,0.002,0.6875496,-1.718874,0.1718874
0.026,-0.012,0.007,3.3804522,-3.5523396,2.1199446
0.037,-0.001,-0.029,0.6875496,-4.1825934,-0.0572958
0.109,-0.211,0.006,-7.734933,-1.7761698,1.8907614
0.023,-0.756,0.113,15.2979786,123.5870406,-140.0309352
0,0,0,0.3437748,0.286479,0.3437748
-0.001,-0.01,-0.002,0.7448454,-1.3750992,0.4010706
0.022,-0.006,0.007,4.1825934,-2.6356068,2.1772404
0.037,-0.001,-0.034,0.9167328,-2.5210152,-0.0572958
0.107,-0.228,0.009,-12.0894138,-0.859437,1.3178034
0.054,-0.761,0.052,20.1681216,129.2593248,-146.8491354
0,0,0,0.572958,0.4010706,0.4010706
-0.002,-0.009,-0.006,0.9167328,-1.145916,0.6302538
0.015,0,0.006,4.583664,-1.7761698,2.1199446
0.036,0.001,-0.034,1.2032118,-1.718874,-0.286479
0.098,-0.245,0.012,-11.8029348,-0.1718874,0.4583664
0.05,-0.755,0.003,18.5065434,133.9002846,-152.979786
0,0,0,0.859437,0.286479,0.5156622
-0.001,-0.003,-0.003,0.7448454,-0.9167328,0.6875496
0.006,-0.001,0.006,4.7555514,-1.0313244,1.8334656
0.035,0.004,-0.035,0.9740286,-1.2605076,-0.4583664
0.093,-0.256,0.012,-6.9327918,0.1145916,-0.8021412
0.033,-0.735,-0.009,11.1153852,137.3953284,-158.4801828
0,0,0,0.9167328,0.0572958,0.5156622
0,0.002,0.007,0.6875496,-1.3750992,0.6875496
-0.004,-0.002,0.004,4.6982556,-0.5156622,1.2032118
0.032,0.004,-0.037,0.6875496,-1.2605076,-0.4583664
0.102,-0.265,0.006,-0.286479,0.4010706,-1.9480572
-0.002,-0.705,-0.007,2.3491278,139.2860898,-162.0898182
0,0,0,0.9740286,-0.0572958,0.8021412
0.005,0.005,0.012,0.7448454,-1.2605076,0.5156622
-0.014,0,0.006,4.4690724,-0.3437748,0.2291832
0.026,0.005,-0.04,0.3437748,-1.4896908,-0.286479
0.108,-0.268,-0.003,6.7036086,0.4010706,-3.0939732
-0.036,-0.67,0.015,-7.448454,141.6352176,-165.0691998
0,0,0,1.0886202,-0.4583664,0.9167328
0.006,0.003,0.02,0.5156622,-0.9167328,0.5156622
-0.021,0.003,0.007,4.1252976,-0.4010706,-0.8021412
0.022,0.005,-0.038,0.4010706,-2.2345362,0
0.108,-0.251,-0.022,12.7769634,0.6875496,-4.6982556
-0.045,-0.649,0.038,-14.2666542,144.7291908,-167.1891444
0,0,0,1.145916,-0.8021412,0.9167328
0.002,-0.003,0.024,0.6875496,-0.859437,0.5156622
-0.025,0,0.007,3.724227,-0.7448454,-2.005353
0.017,0.005,-0.04,0.1145916,-2.3491278,0.286479
0.109,-0.237,-0.036,13.2926256,0.9167328,-5.8441716
-0.039,-0.633,0.06,-16.9595568,147.7658682,-167.7621024
0,0,0,1.0886202,-0.859437,0.859437
-0.003,-0.005,0.02,0.9740286,-0.572958,0.572958
-0.025,-0.004,0.006,3.3804522,-1.2605076,-2.9793816
0.018,0.002,-0.038,0,-2.8074942,0.5156622
0.107,-0.217,-0.037,9.7975818,1.145916,-6.7609044
-0.021,-0.608,0.084,-17.18874,152.8078986,-167.8193982
0,0,0,1.2605076,-1.0313244,0.8021412
-0.004,-0.007,0.012,1.0886202,-0.7448454,0.6302538
-0.024,-0.01,0.004,3.0939732,-1.8907614,-3.5523396
0.017,0.001,-0.033,0,-3.3804522,0.572958
0.115,-0.227,-0.027,3.0366774,1.5469866,-7.5057498
-0.035,-0.588,0.1,-15.9855282,158.5374786,-168.0485814
0,0,0,1.145916,-1.145916,0.6302538
-0.006,-0.009,0.005,1.3178034,-1.145916,0.4583664
-0.018,-0.016,0.003,2.9220858,-2.4637194,-3.6096354
0.017,-0.004,-0.029,0.0572958,-3.6096354,0.4583664
0.122,-0.224,-0.027,-5.156622,2.291832,-7.9068204
-0.045,-0.576,0.11,-16.5584862,162.5481846,-169.4236806
0,0,0,0.9167328,-1.3178034,0.3437748
-0.008,-0.007,0.002,1.3750992,-1.5469866,0.4010706
-0.012,-0.011,0.004,2.86479,-2.9793816,-3.2658606
0.021,-0.011,-0.024,0.1145916,-3.3804522,0.5156622
0.114,-0.236,-0.02,-12.2040054,2.6929026,-7.9641162
-0.087,-0.548,0.113,-18.7357266,166.730778,-169.0799058
0,0,0,0.6875496,-1.4896908,0.1145916
-0.008,-0.003,0,1.2605076,-2.5210152,0.4010706
-0.005,-0.003,0.004,2.9220858,-3.437748,-2.578311
0.029,-0.016,-0.027,0.286479,-3.2658606,0.5156622
0.11,-0.269,-0.015,-15.0114996,3.3804522,-7.9068204
-0.13,-0.537,0.107,-22.5745452,169.7674554,-169.882047
0,0,0,0.3437748,-1.6615782,0.1145916
-0.002,0.002,-0.007,1.0886202,-2.578311,0.4583664
-0.001,0.001,0.005,2.9220858,-3.6096354,-1.5469866
0.037,-0.012,-0.028,0.8021412,-3.3804522,0.6302538
0.103,-0.281,-0.026,-12.4904844,3.3231564,-7.5630456
-0.148,-0.568,0.1,-28.7624916,170.9133714,-172.0592874
0,0,0,0.1145916,-1.6042824,0.1145916
0.002,0.006,-0.005,0.8021412,-2.4637194,0.572958
0,0.003,0.004,2.8074942,-3.6669312,-0.5156622
0.041,-0.006,-0.027,0.8021412,-2.7501984,0.6875496
0.095,-0.286,-0.036,-7.9068204,3.0939732,-7.2765666
-0.171,-0.626,0.094,-32.945085,172.5749496,-174.2938236
0,0,0,0.286479,-1.5469866,0.3437748
0.006,0.004,-0.001,0.572958,-1.8334656,0.6302538
0,0,0.004,2.6929026,-3.4950438,0.286479
0.039,-0.001,-0.023,0.7448454,-1.8907614,0.5156622
0.092,-0.291,-0.037,-1.8334656,2.3491278,-6.875496
-0.174,-0.658,0.105,-32.085648,174.9813732,-176.5283598
0,0,0,0.6302538,-1.4896908,0.5156622
0.009,0.002,-0.001,0.8021412,-1.145916,0.6302538
-0.003,0.003,0.004,2.4637194,-3.2658606,0.9167328
0.039,0.003,-0.025,1.0886202,-1.3750992,0.3437748
0.099,-0.276,-0.041,4.9274388,1.3750992,-6.4744254
-0.199,-0.654,0.117,-29.7365202,177.4450926,-178.7056002
0,0,0,1.0313244,-1.2605076,0.6875496
0.006,0.003,-0.002,0.7448454,-0.4010706,0.572958
-0.005,0.009,0.007,2.0626488,-3.0366774,1.3178034
0.039,0.006,-0.024,1.4896908,-0.9167328,0.3437748
0.104,-0.262,-0.046,6.9900876,0.4583664,-6.1306506
-0.205,-0.676,0.137,-25.5539268,179.8515162,-182.0860524
0,0,0,1.3178034,-0.6302538,0.6302538
0.004,0.001,0.004,0.572958,-0.2291832,0.4010706
-0.007,0.007,0.007,1.6042824,-2.8074942,1.4896908
0.04,0.006,-0.025,1.5469866,0,0.4010706
0.107,-0.251,-0.056,5.72958,-0.5156622,-5.6149884
-0.172,-0.704,0.12,-18.8503182,183.7476306,-186.0394626
0,0,0,1.432395,0.0572958,0.6302538
0.006,-0.001,0.004,0.7448454,-0.286479,0.3437748
-0.006,-0.004,0.003,1.0886202,-2.578311,1.6042824
0.041,0.003,-0.032,1.3178034,0.859437,0.4010706
0.103,-0.237,-0.057,1.0313244,-1.0886202,-4.8128472
-0.131,-0.705,0.098,-9.9121734,187.643745,-189.649098
0,0,0,1.432395,0.859437,0.5156622
0.011,-0.004,-0.002,1.0313244,0,0.2291832
-0.003,-0.009,0,0.6875496,-2.4637194,1.8334656
0.04,0,-0.036,1.2605076,1.718874,0.4010706
0.103,-0.229,-0.041,-5.9014674,-1.5469866,-4.0680018
-0.164,-0.637,0.137,0.0572958,189.935577,-191.2533804
0,0,0,1.3750992,1.718874,0.5156622
0.011,-0.004,-0.004,1.0886202,0.3437748,0.1718874
0.003,-0.008,0,0.4583664,-2.3491278,2.291832
0.04,-0.004,-0.033,0.9167328,2.4064236,0.3437748
0.12,-0.245,-0.026,-12.3758928,-1.2605076,-3.437748
-0.262,-0.517,0.204,2.3491278,187.7583366,-189.8782812
0,0,0,1.3178034,3.0366774,0.3437748
0.011,-0.005,-0.006,0.9740286,0.9740286,0.0572958
0.007,-0.009,-0.001,0.4010706,-2.1772404,2.86479
0.039,-0.008,-0.039,0.8021412,2.86479,0.3437748
0.125,-0.262,-0.022,-14.8396122,-1.2605076,-3.0939732
-0.253,-0.413,0.284,-1.7761698,183.7476306,-186.7270122
0,0,0,1.3178034,3.9534102,0.2291832
0.009,-0.005,-0.012,1.0313244,1.6042824,0
0.012,-0.014,-0.002,0.5156622,-1.9480572,3.4950438
0.04,-0.01,-0.037,0.6875496,3.2085648,0.3437748
0.129,-0.279,-0.02,-13.2353298,-1.6615782,-3.2085648
-0.168,-0.376,0.336,-10.1413566,180.5963616,-184.8362508
0,0,0,1.3178034,5.0420304,0.1718874
0.006,-0.004,-0.012,0.9167328,2.2345362,0
0.023,-0.017,-0.004,0.859437,-1.6615782,4.1825934
0.039,-0.014,-0.038,0.5156622,3.8388186,0.6302538
0.142,-0.29,-0.009,-8.4224826,-2.1199446,-3.2658606
-0.108,-0.383,0.343,-21.772404,177.9607548,-183.7476306
0,0,0,1.3750992,6.2452422,0.0572958
0.004,-0.004,-0.002,0.6302538,2.3491278,0.1145916
0.032,-0.019,-0.007,1.3750992,-1.2032118,4.870143
0.024,-0.013,-0.046,1.6042824,4.4117766,0.7448454
0.153,-0.298,0.001,0.2291832,-2.578311,-3.4950438
-0.086,-0.407,0.309,-36.4401288,174.75219,-182.7163062
0,0,0,1.3750992,7.0473834,-0.0572958
0.005,-0.001,0.001,0.286479,2.5210152,0.286479
0.035,-0.027,-0.007,2.1772404,-0.6875496,5.6149884
0.012,0,-0.042,1.6042824,6.589017,0.5156622
0.139,-0.298,0.001,7.3911582,-2.9220858,-3.6669312
-0.058,-0.448,0.303,-44.5761324,173.1479076,-183.060081
0,0,0,1.3750992,6.9327918,-0.3437748
0.002,0.003,0.004,0.286479,2.8074942,0.3437748
0.033,-0.02,-0.002,3.0939732,-0.2291832,6.3598338
0.019,0,-0.04,0.4010706,9.167328,-0.286479
0.102,-0.27,-0.001,11.0580894,-3.2085648,-3.3804522
-0.073,-0.476,0.295,-48.1857678,172.6322454,-183.8049264
0,0,0,1.3178034,6.4171296,-0.4010706
-0.009,0.004,0.01,0.1145916,2.7501984,0.4010706
0.025,-0.001,0.005,4.010706,0,7.161975
0.031,-0.013,-0.022,2.5210152,13.4072172,-0.8021412
0.085,-0.24,0.007,7.5630456,-3.3804522,-2.7501984
-0.036,-0.531,0.298,-45.4355694,173.4343866,-187.7583366
0,0,0,1.145916,5.443101,-0.5156622
-0.019,0.006,0.01,-0.2291832,2.86479,0.5156622
0.013,-0.003,0.007,4.583664,0,7.734933
0.037,-0.015,-0.028,5.2712136,15.8136408,-0.4583664
0.101,-0.22,0.022,-1.8334656,-2.7501984,-1.5469866
0.011,-0.561,0.312,-35.0650296,176.6429514,-193.6025082
0,0,0,1.145916,4.2398892,-0.4010706
-0.017,0.001,0.01,-0.7448454,2.3491278,0.4583664
0.003,-0.015,0.01,4.870143,-0.4010706,7.8495246
0.038,0.004,-0.05,5.0993262,14.5531332,-0.2291832
0.117,-0.223,0.039,-15.8709366,-1.2605076,-0.1718874
0.006,-0.532,0.354,-22.0015872,180.3098826,-200.7071874
0,0,0,1.3178034,3.3804522,-0.2291832
-0.007,-0.006,0.002,-0.5156622,1.4896908,-0.0572958
-0.005,-0.013,0.012,4.870143,-1.2605076,7.3338624
0.031,0.018,-0.072,1.6042824,11.45916,0.286479
0.103,-0.258,0.044,-27.1009134,0.7448454,0.9167328
-0.12,-0.469,0.413,-13.1207382,179.7369246,-206.7232464
0,0,0,1.2605076,2.4064236,-0.3437748
0,-0.003,-0.01,-0.1718874,0.6875496,-0.3437748
-0.01,-0.002,0.016,4.6409598,-2.4637194,6.302538
0.028,0.015,-0.053,0,8.4797784,0.7448454
0.105,-0.271,0.041,-30.4813656,2.2345362,1.6615782
-0.204,-0.445,0.439,-7.8495246,178.5337128,-210.3328818
0,0,0,0.7448454,1.0313244,-0.3437748
0.005,0,-0.016,-0.1718874,0.6875496,-0.1145916
-0.012,0.002,0.021,4.1252976,-3.9534102,4.583664
0.034,0.01,-0.028,1.0313244,8.307891,0.9167328
0.117,-0.311,0.035,-27.6738714,3.2658606,1.6615782
-0.214,-0.431,0.448,-4.8128472,178.8201918,-213.9425172
0,0,0,0.6875496,0,-0.4010706
0.007,0.001,-0.018,0,1.0886202,0
-0.004,0.005,0.02,3.4950438,-5.5003968,2.6929026
0.047,0.004,-0.023,1.5469866,8.0787078,0.9167328
0.144,-0.283,0.013,-19.7097552,3.9534102,1.4896908
-0.239,-0.429,0.439,-1.2605076,180.6536574,-214.6300668
0,0,0,0.4583664,-0.6302538,-0.2291832
0.007,0,-0.013,0,0.7448454,0.1718874
0.01,0.009,0.017,2.7501984,-6.875496,1.0313244
0.052,0,-0.038,1.6042824,7.9068204,1.0886202
0.138,-0.299,0.01,-10.4851314,4.2398892,-0.2291832
-0.247,-0.429,0.413,2.3491278,181.7995734,-213.6560382
0,0,0,0.5156622,-1.3178034,0.1145916
0.008,0,-0.002,0,0.6302538,0.2291832
0.022,0.008,0.016,2.0626488,-7.9068204,-0.1718874
0.049,0,-0.041,1.6615782,7.0473834,1.145916
0.136,-0.304,0.003,0,4.2398892,-2.0626488
-0.262,-0.446,0.373,4.4117766,182.3152356,-212.7393054
0,0,0,0.572958,-1.0886202,0.1145916
0.004,0.001,0.008,-0.1718874,0.859437,0
0.028,0.007,0.013,1.3178034,-8.5370742,-0.9740286
0.04,0.001,-0.032,1.8907614,6.589017,1.0886202
0.131,-0.274,-0.022,8.4797784,4.2398892,-4.583664
-0.336,-0.384,0.415,7.5057498,178.6483044,-208.6713036
0,0,0,1.0313244,-0.9740286,0.2291832
-0.003,0.001,0.02,-0.1718874,0.859437,-0.1145916
0.029,0,0.01,0.6875496,-8.7662574,-1.432395
0.034,0,-0.032,2.2345362,6.4171296,1.0886202
0.125,-0.253,-0.034,9.167328,4.6409598,-6.1879464
-0.494,-0.23,0.557,14.7823164,168.6215394,-198.8737218
0,0,0,1.2605076,-0.5156622,0.1718874
-0.001,-0.002,0.024,-0.3437748,0.7448454,-0.4583664
0.031,-0.001,0.005,0,-8.5370742,-1.6042824
0.034,-0.001,-0.036,2.4637194,5.9587632,1.145916
0.136,-0.245,-0.042,6.4744254,5.3285094,-7.161975
-0.585,-0.085,0.73,26.7571386,150.6306582,-181.7422776
0,0,0,1.0886202,0.286479,-0.1145916
0.007,-0.006,0.021,0.1145916,0.4010706,-0.6302538
0.032,0.005,0.006,-0.572958,-8.0787078,-1.718874
0.04,-0.003,-0.036,2.6356068,5.0993262,1.2605076
0.146,-0.243,-0.049,0.6302538,5.9014674,-7.9641162
-0.508,-0.022,0.777,33.0596766,131.8949316,-166.3870032
0,0,0,0.6875496,1.5469866,-0.572958
0.011,0,0.012,0.4010706,0.8021412,-0.6302538
0.033,0.014,0.007,-1.3178034,-7.2765666,-1.7761698
0.043,-0.003,-0.033,2.7501984,4.870143,1.3750992
0.143,-0.258,-0.053,-6.1879464,6.6463128,-8.1360036
-0.36,0.049,0.724,33.9191136,111.3257394,-145.4167404
0,0,0,0.4583664,2.1199446,-0.9740286
0.007,0.002,0.006,0.4583664,0.6302538,-0.6875496
0.038,0.015,0.005,-2.0626488,-6.1306506,-1.7761698
0.042,-0.001,-0.029,2.1772404,4.870143,1.432395
0.131,-0.273,-0.057,-7.9068204,6.589017,-8.307891
-0.211,0.113,0.675,30.366774,90.1835892,-117.2272068
0,0,0,0.4583664,2.4637194,-1.0313244
0.005,-0.001,0.002,0.572958,0.2291832,-0.572958
0.043,0.008,0.004,-2.6929026,-4.7555514,-1.6042824
0.041,-0.004,-0.035,1.5469866,4.4117766,1.432395
0.114,-0.284,-0.062,-5.6722842,6.2452422,-8.6516658
-0.092,0.121,0.654,24.0069402,74.4272442,-93.3348582
0,0,0,0.6875496,2.2345362,-0.9167328
0.007,-0.001,-0.001,0.572958,0.1145916,-0.572958
0.05,0,0.001,-3.2658606,-3.0939732,-1.2605076
0.041,-0.01,-0.042,1.0313244,3.8388186,0.8021412
0.109,-0.3,-0.058,-0.8021412,5.2712136,-9.167328
0.014,0.059,0.606,16.902261,60.6762522,-69.900876
0,0,0,0.1145916,1.432395,-0.9740286
0.007,-0.004,-0.006,0.572958,0.5156622,-0.6302538
0.059,-0.013,0.001,-3.6096354,-0.9167328,-0.572958
0.034,-0.02,-0.043,-0.5156622,3.2658606,-0.4583664
0.107,-0.307,-0.059,6.0733548,4.1825934,-9.3392154
0.078,0.027,0.6,12.5477802,49.9619376,-49.847346
0,0,0,-0.1145916,1.2605076,-0.7448454
0.003,-0.009,-0.006,0.3437748,0.859437,-0.6875496
0.065,-0.028,-0.001,-3.5523396,1.4896908,0.5156622
0.024,-0.024,-0.04,-2.4064236,2.86479,-1.718874
0.106,-0.29,-0.067,11.8602306,2.8074942,-8.9954406
0.097,0.083,0.672,8.1932994,39.3049188,-36.0390582
0,0,0,-0.6302538,1.6615782,-0.6302538
0,-0.01,-0.005,0.3437748,0.9740286,-0.6875496
0.061,-0.039,-0.001,-2.9793816,4.5263682,2.291832
0.015,-0.016,-0.04,-3.0939732,2.5210152,-1.8907614
0.096,-0.272,-0.066,12.318597,1.5469866,-8.0787078
0.117,0.124,0.757,1.432395,28.1322378,-24.6944898
0,0,0,-1.145916,1.8907614,-0.6875496
-0.005,-0.004,-0.003,0.4583664,1.3750992,-0.6875496
0.057,-0.039,-0.002,-2.005353,7.8495246,4.583664
0.002,-0.007,-0.038,-3.437748,1.5469866,-1.6042824
0.09,-0.252,-0.058,6.7609044,0.572958,-6.0733548
0.131,0.097,0.803,-3.3231564,18.2773602,-18.2773602
0,0,0,-1.3178034,1.8334656,-0.9167328
-0.01,0,0.006,0.5156622,1.2605076,-0.6875496
0.049,-0.037,-0.001,-0.8021412,11.172681,7.0473834
-0.008,-0.004,-0.04,-3.5523396,0.572958,-1.4896908
0.115,-0.248,-0.03,-3.0366774,0.1145916,-3.0939732
0.12,0.038,0.813,-5.3285094,11.45916,-13.8655836
0,0,0,-1.2605076,1.2032118,-0.9167328
-0.014,0.001,0.011,0.5156622,1.0313244,-0.4583664
0.027,-0.031,0,0.5156622,14.4385416,9.5683986
-0.013,-0.003,-0.038,-3.4950438,-0.4583664,-1.5469866
0.137,-0.258,-0.016,-15.0687954,-0.1718874,0.3437748
0.127,-0.022,0.786,-2.1772404,6.9900876,-8.0787078
0,0,0,-1.0313244,0.5156622,-0.6875496
-0.017,0.006,0.006,0.6875496,0.7448454,-0.286479
0.008,-0.013,0.006,1.7761698,17.18874,11.6310474
-0.012,-0.003,-0.032,-3.2658606,-1.5469866,-1.8334656
0.134,-0.273,0,-22.1161788,-0.3437748,3.5523396
0.155,-0.041,0.756,1.145916,5.3285094,-4.1825934
0,0,0,-0.5156622,-0.5156622,-0.6302538
-0.026,0.012,0.013,0.4583664,0.1718874,-0.1145916
-0.011,0.013,0.015,2.6356068,19.2513888,13.0634424
-0.006,-0.001,-0.026,-1.9480572,-1.6615782,-2.1199446
0.126,-0.308,0.017,-23.491278,-0.859437,6.302538
0.179,-0.047,0.75,2.8074942,5.156622,-2.3491278
0,0,0,-0.4583664,-1.0886202,-0.572958
-0.03,0.009,0.021,0.1145916,-0.3437748,0.0572958
-0.027,0.025,0.024,2.9220858,20.340009,13.750992
0.008,0.003,-0.028,-1.0886202,-0.8021412,-2.2345362
0.118,-0.306,0.022,-18.907614,-1.3178034,8.6516658
0.167,-0.061,0.753,1.3178034,4.4690724,-3.0366774
0,0,0,-0.286479,-1.3178034,-0.286479
-0.029,0.004,0.013,0,-1.0886202,0.1145916
-0.033,0.018,0.025,2.6929026,20.5118964,13.6936962
0.028,0.009,-0.036,-0.1145916,0.572958,-2.1772404
0.114,-0.294,0.025,-13.1207382,-1.432395,9.6256944
0.159,-0.079,0.725,-1.718874,2.86479,-5.3285094
0,0,0,-0.1145916,-1.2605076,0.0572958
-0.022,0.002,0,0.0572958,-1.3750992,0.286479
-0.03,0.005,0.021,2.2345362,19.9389384,13.178034
0.042,0.022,-0.047,0.6875496,1.2032118,-2.291832
0.106,-0.303,0.032,-4.5263682,-1.6615782,10.026765
0.156,-0.11,0.656,-4.2398892,1.4896908,-8.4797784
0,0,0,0.1718874,-1.145916,0.2291832
-0.02,0,-0.007,-0.1718874,-1.3750992,0.4583664
-0.026,-0.001,0.016,1.5469866,18.5065434,12.4331886
0.045,0.03,-0.049,0.1145916,0.9740286,-2.1772404
0.1,-0.292,0.029,5.156622,-1.6615782,9.7975818
0.139,-0.133,0.621,-2.6356068,0.4010706,-10.1986524
0,0,0,0.572958,-0.7448454,0.6875496
-0.016,-0.001,-0.014,-0.3437748,-1.3178034,0.6875496
-0.026,-0.002,0.016,1.0313244,16.6730778,11.5737516
0.042,0.028,-0.045,-0.5156622,0.5156622,-2.1199446
0.098,-0.262,0.013,10.2559482,-0.9740286,9.1100322
0.127,-0.13,0.6,1.3178034,-0.6302538,-9.6829902
0,0,0,0.6875496,-0.286479,0.9740286
-0.011,0.002,-0.017,-0.5156622,-1.4896908,0.9740286
-0.027,0,0.014,0.4010706,14.3812458,10.599723
0.038,0.015,-0.037,-0.9167328,0.3437748,-2.1199446
0.09,-0.242,-0.006,11.3445684,-0.1718874,7.9641162
0.132,-0.125,0.567,5.443101,-2.291832,-6.589017
0,0,0,0.859437,0,1.3178034
-0.004,0.004,-0.012,-0.7448454,-1.6615782,1.0886202
-0.032,0,0.011,-0.0572958,11.8602306,9.2819196
0.035,0,-0.033,-0.572958,0.286479,-1.8907614
0.088,-0.227,-0.023,9.3965112,1.145916,6.1306506
0.154,-0.111,0.547,7.3338624,-3.6669312,-2.6929026
0,0,0,0.9740286,0.286479,1.3750992
0,0.001,-0.009,-0.9167328,-1.5469866,1.2032118
-0.037,-0.012,0.005,-0.4583664,9.2246238,7.6203414
0.033,-0.009,-0.029,0.1145916,0,-1.6042824
0.102,-0.206,-0.038,4.870143,2.291832,4.8128472
0.175,-0.105,0.535,5.9587632,-4.7555514,0.1718874
0,0,0,1.2605076,0.4010706,1.432395
0.003,-0.002,-0.003,-0.9167328,-1.3750992,1.0886202
-0.04,-0.022,0.002,-0.6875496,6.4171296,5.3858052
0.03,-0.01,-0.02,0.286479,-0.2291832,-1.4896908
0.113,-0.212,-0.044,-1.4896908,3.724227,2.9220858
0.17,-0.096,0.514,-0.3437748,-7.161975,2.9793816
0,0,0,1.3178034,0.5156622,1.2032118
0.011,-0.006,0.002,-0.8021412,-1.3178034,1.0313244
-0.033,-0.026,0.002,-0.7448454,3.5523396,2.7501984
0.027,-0.01,-0.018,-0.1145916,0,-1.5469866
0.111,-0.231,-0.055,-5.0993262,4.583664,0.572958
0.17,-0.11,0.489,-8.021412,-9.740286,4.3544808
0,0,0,1.2032118,0.286479,1.2032118
0.019,-0.009,0.008,-0.4583664,-1.0313244,0.8021412
-0.017,-0.017,0.005,-0.6875496,0.9167328,0.2291832
0.02,-0.014,-0.026,-0.286479,0.3437748,-1.718874
0.105,-0.236,-0.066,-5.156622,4.9274388,-1.2032118
0.159,-0.143,0.46,-13.750992,-11.1153852,5.3285094
0,0,0,1.0313244,-0.0572958,1.0886202
0.019,-0.002,0.013,-0.286479,-0.4010706,0.6302538
0,-0.012,0.008,-0.572958,-1.145916,-1.8334656
0.013,-0.018,-0.03,0.0572958,-0.1145916,-1.718874
0.102,-0.244,-0.071,-3.437748,4.583664,-3.2085648
0.159,-0.185,0.431,-14.7823164,-10.7716104,6.8182002
0,0,0,0.572958,-0.7448454,0.9167328
0.015,0.003,0.022,-0.286479,-0.2291832,0.4583664
0.008,-0.006,0.011,-0.5156622,-2.6929026,-3.3804522
0.011,-0.015,-0.033,0.286479,-0.5156622,-1.2605076
0.097,-0.253,-0.073,0.6302538,3.8388186,-4.9274388
0.158,-0.202,0.413,-12.5477802,-10.026765,8.7662574
0,0,0,0.0572958,-1.145916,0.859437
0.006,0.003,0.031,-0.3437748,-0.4010706,0.2291832
0.008,-0.008,0.018,-0.572958,-3.6669312,-4.4117766
0.013,-0.009,-0.038,0.4010706,-1.0313244,-0.7448454
0.095,-0.255,-0.08,5.156622,2.8074942,-6.016059
0.172,-0.235,0.403,-9.2246238,-9.3392154,10.3705398
0,0,0,-0.2291832,-1.3750992,0.8021412
-0.003,0.004,0.03,-0.1145916,-1.2032118,0
0.005,-0.007,0.023,-0.7448454,-4.0680018,-5.0993262
0.018,-0.001,-0.038,0.6875496,-1.8334656,-0.2291832
0.093,-0.238,-0.087,6.5317212,2.005353,-6.6463128
0.202,-0.264,0.397,-4.3544808,-7.6203414,11.745639
0,0,0,-0.6302538,-1.3178034,0.572958
-0.006,0.002,0.022,-0.0572958,-1.7761698,0
0.005,-0.009,0.028,-1.0313244,-4.1825934,-5.5576926
0.021,0.004,-0.04,1.2605076,-2.5210152,0.1145916
0.091,-0.234,-0.078,3.724227,1.2032118,-7.2192708
0.231,-0.257,0.397,-1.432395,-5.9014674,12.0894138
0,0,0,-0.7448454,-1.3178034,0.4583664
-0.006,0,0.011,-0.0572958,-1.8334656,0
0.002,-0.023,0.03,-1.3178034,-4.010706,-5.9587632
0.026,0.005,-0.04,1.432395,-2.7501984,0.5156622
0.089,-0.237,-0.064,0.6302538,0.6302538,-7.2192708
0.249,-0.241,0.396,-1.3178034,-4.4690724,11.0580894
0,0,0,-0.7448454,-1.4896908,0.1145916
-0.005,-0.004,-0.004,-0.0572958,-1.8334656,0.1718874
-0.003,-0.032,0.031,-1.3178034,-3.6669312,-6.4171296
0.032,0.001,-0.035,1.0313244,-2.5210152,0.6302538
0.091,-0.239,-0.06,-2.5210152,0.5156622,-7.0473834
0.264,-0.254,0.365,-6.9327918,-2.7501984,7.7922288
0,0,0,-0.6875496,-1.5469866,-0.1718874
-0.005,-0.008,-0.021,0.0572958,-2.005353,0.286479
-0.007,-0.04,0.03,-0.9740286,-3.2658606,-6.9327918
0.036,-0.002,-0.032,0.6875496,-2.291832,0.572958
0.091,-0.251,-0.058,-4.7555514,0.4010706,-6.7609044
0.269,-0.276,0.32,-13.2926256,0,3.0366774
0,0,0,-0.6302538,-1.8334656,-0.3437748
-0.002,-0.006,-0.027,0,-2.005353,0.286479
-0.009,-0.05,0.03,-0.2291832,-2.7501984,-7.5057498
0.036,-0.007,-0.026,0.5156622,-2.7501984,0.6302538
0.091,-0.265,-0.054,-3.7815228,-0.0572958,-6.6463128
0.254,-0.312,0.289,-20.2827132,4.010706,-2.1199446
0,0,0,-0.6302538,-1.8907614,-0.4583664
0.001,-0.003,-0.026,0,-1.6615782,0.3437748
-0.011,-0.054,0.031,0.9167328,-2.2345362,-7.9641162
0.033,-0.01,-0.029,0,-2.4064236,0.8021412
0.091,-0.271,-0.049,-0.7448454,-0.5156622,-6.1879464
0.257,-0.312,0.272,-27.9603504,8.1360036,-8.9381448
0,0,0,-0.7448454,-1.8334656,-0.4583664
0.006,0,-0.018,0,-1.6042824,0.1145916
-0.013,-0.049,0.032,2.291832,-1.7761698,-8.1932994
0.032,-0.013,-0.031,0.1718874,-2.3491278,0.8021412
0.085,-0.268,-0.046,2.9793816,-1.3750992,-5.3858052
0.247,-0.322,0.288,-32.945085,10.4278356,-12.891555
0,0,0,-0.9740286,-2.005353,-0.3437748
0.008,0.006,-0.004,-0.1145916,-1.0313244,0
-0.025,-0.035,0.036,3.7815228,-1.3178034,-8.1932994
0.029,-0.004,-0.031,0.7448454,-2.9220858,0.9167328
0.087,-0.263,-0.042,6.1879464,-2.1199446,-4.583664
0.235,-0.319,0.326,-35.4088044,12.7196676,-16.615782
0,0,0,-1.0886202,-2.005353,-0.1145916
0.006,0.003,0.007,-0.2291832,-0.859437,0
-0.038,-0.021,0.036,5.0993262,-1.0313244,-8.1932994
0.023,0.008,-0.029,0.7448454,-4.010706,1.2605076
0.097,-0.259,-0.042,6.9327918,-2.578311,-3.6669312
0.259,-0.312,0.349,-35.5806918,15.2406828,-19.480572
0,0,0,-0.9167328,-2.2345362,0.1145916
0.007,0.001,0.015,-0.4010706,-0.9167328,-0.0572958
-0.045,-0.013,0.038,6.1879464,-0.9167328,-8.2505952
0.019,0.013,-0.028,0.6875496,-5.0993262,1.432395
0.106,-0.249,-0.047,5.5576926,-3.151269,-2.4064236
0.3,-0.303,0.362,-33.5753388,18.8503182,-22.345362
0,0,0,-0.4583664,-2.4637194,0.3437748
0.005,0,0.023,-0.1718874,-1.0886202,0
-0.046,-0.005,0.033,6.875496,-1.145916,-8.1932994
0.022,0.014,-0.031,0.859437,-6.0733548,1.6042824
0.108,-0.239,-0.05,2.6356068,-3.5523396,-1.6615782
0.297,-0.302,0.387,-28.0176462,24.4080108,-25.6112226
0,0,0,-0.1718874,-2.4064236,0.5156622
0,0,0.025,0.1718874,-1.3750992,0.0572958
-0.043,-0.019,0.026,7.3911582,-1.432395,-7.9068204
0.027,0.008,-0.035,0.859437,-6.302538,1.6042824
0.112,-0.232,-0.048,-1.7761698,-4.0680018,-1.3178034
0.236,-0.281,0.393,-26.4706596,27.3873924,-29.0489706
0,0,0,-0.0572958,-2.4064236,0.5156622
-0.009,-0.003,0.02,0.4010706,-1.3750992,0
-0.035,-0.026,0.017,7.8495246,-1.8334656,-7.3911582
0.025,0.002,-0.037,0.572958,-5.72958,1.432395
0.124,-0.248,-0.031,-5.7868758,-4.5263682,-1.3750992
0.172,-0.251,0.397,-26.1268848,29.0489706,-32.4294228
0,0,0,-0.1145916,-2.3491278,0.4010706
-0.018,-0.009,0.019,0.4583664,-1.8334656,0
-0.021,-0.024,0.01,8.2505952,-2.2345362,-6.3598338
0.021,-0.006,-0.031,-0.2291832,-5.3285094,1.3178034
0.128,-0.248,-0.021,-7.6776372,-4.297185,-1.3178034
0.133,-0.229,0.396,-24.1788276,29.6219286,-33.804522
0,0,0,-0.3437748,-1.9480572,0.3437748
-0.019,-0.01,0.012,0.3437748,-3.0366774,-0.0572958
-0.014,-0.015,0.006,8.6516658,-2.4637194,-4.870143
0.021,-0.014,-0.026,-0.572958,-5.8441716,1.3178034
0.124,-0.262,-0.01,-8.3651868,-4.3544808,-1.0313244
0.135,-0.208,0.379,-22.1161788,30.2521824,-30.4813656
0,0,0,-0.5156622,-1.8907614,0.2291832
-0.013,-0.003,0.004,0.4010706,-3.8388186,-0.1145916
-0.009,0,0.006,8.9381448,-2.5210152,-3.0366774
0.026,-0.016,-0.027,-0.1718874,-6.2452422,1.2605076
0.121,-0.279,-0.004,-5.9587632,-4.3544808,-0.5156622
0.163,-0.152,0.342,-18.5638392,31.8564648,-22.1161788
0,0,0,-0.6875496,-1.5469866,0.1145916
-0.003,0.001,-0.001,0.3437748,-3.724227,0
-0.009,0.013,0.006,8.9381448,-2.4637194,-1.0886202
0.027,-0.009,-0.029,0.2291832,-6.2452422,1.145916
0.122,-0.273,-0.001,-1.145916,-4.6409598,0.286479
0.202,-0.072,0.346,-22.7464326,33.231564,-12.5477802
0,0,0,-0.6302538,-1.3750992,0
0.001,0.001,-0.004,0.4010706,-3.2658606,0.1718874
-0.012,0.015,0.003,8.6516658,-2.2345362,0.572958
0.029,0,-0.025,0.2291832,-5.5003968,0.9740286
0.129,-0.265,-0.001,2.9793816,-4.583664,0.2291832
0.165,0.037,0.386,-46.123119,28.361421,-6.4744254
0,0,0,-0.5156622,-1.0886202,0
0.007,0,-0.001,0.286479,-2.578311,0.1718874
-0.009,0.008,0,8.1360036,-2.005353,1.9480572
0.027,0.004,-0.025,0.0572958,-4.297185,0.572958
0.136,-0.265,0,7.5057498,-4.870143,-0.1718874
0.067,0.117,0.475,-86.803137,14.5531332,0.859437
0,0,0,-0.7448454,-0.4583664,0.1145916
0.008,-0.001,-0.002,0.572958,-1.5469866,0.2291832
0.001,-0.002,-0.004,7.448454,-1.718874,3.0939732
0.022,0.001,-0.027,0.0572958,-2.7501984,0.1145916
0.137,-0.253,0.001,9.740286,-5.2139178,-0.7448454
-0.001,0.132,0.506,-128.91555,-2.6356068,11.8602306
0,0,0,-0.7448454,0.2291832,0.3437748
0.009,-0.003,-0.001,0.572958,-0.7448454,0.3437748
0.009,-0.001,-0.002,6.7609044,-1.2032118,4.2398892
0.014,-0.006,-0.031,0.572958,-2.1772404,-0.0572958
0.143,-0.229,0,7.2765666,-4.5263682,-0.572958
0.018,0.104,0.477,-154.5840684,-14.7823164,25.6112226
0,0,0,-0.6875496,0.1718874,0.4583664
0.005,-0.003,0.004,0.6302538,-0.6302538,0.286479
0.017,0.009,-0.002,6.016059,-0.6302538,5.6149884
0.01,-0.009,-0.033,0.572958,-3.151269,0
0.139,-0.219,0.002,0.8021412,-3.2658606,-0.1718874
0.037,-0.015,0.43,-161.4595644,-21.6578124,43.831287
0,0,0,-0.5156622,-0.3437748,0.4583664
0.001,-0.002,0.004,0.7448454,-0.6875496,0.286479
0.014,0.016,-0.002,5.2139178,0.286479,7.448454
0.009,-0.009,-0.029,0,-4.9274388,0.1145916
0.137,-0.241,0.013,-7.5057498,-1.6615782,0.2291832
0.053,-0.151,0.411,-143.6978664,-22.5745452,67.6663398
0,0,0,-0.6302538,-1.3178034,0.4583664
-0.008,0.001,0.004,0.6875496,-1.432395,0.286479
0.003,0.012,-0.003,4.4690724,1.4896908,9.2819196
0.015,-0.006,-0.028,-0.0572958,-6.016059,0
0.153,-0.257,0.018,-9.8548776,-0.7448454,0.4583664
0.066,-0.273,0.415,-109.0912032,-17.9335854,89.3241522
0,0,0,-0.4010706,-2.2345362,0.4010706
-0.015,0.001,0.006,0.3437748,-1.9480572,0.3437748
-0.004,0.01,-0.004,3.724227,2.7501984,11.1153852
0.02,-0.002,-0.029,-0.0572958,-6.2452422,-0.286479
0.161,-0.274,0.021,-8.5370742,-0.286479,0.4010706
0.076,-0.339,0.44,-56.6655462,-7.448454,115.7948118
0,0,0,-0.3437748,-2.4064236,0.4583664
-0.017,0.001,0.005,0.1145916,-2.4064236,0.5156622
-0.004,0.011,-0.002,3.151269,3.8388186,12.8342592
0.025,0.001,-0.027,-0.286479,-5.156622,-0.9167328
0.148,-0.308,0.027,-1.8907614,-0.4010706,0.1718874
0.067,-0.195,0.458,-27.9030546,0.2291832,133.6138056
0,0,0,-0.1718874,-2.3491278,0.4583664
-0.012,0.003,-0.002,0.4583664,-2.9220858,0.6875496
0.006,0.014,0,2.6356068,4.8128472,14.2666542
0.03,0.003,-0.028,-0.8021412,-3.6669312,-1.6615782
0.127,-0.296,0.02,6.2452422,-0.6302538,0.572958
-0.054,-0.033,0.504,-28.0176462,0.859437,146.5626564
0,0,0,0,-2.1199446,0.6302538
-0.006,0.008,-0.006,0.286479,-2.5210152,0.859437
0.033,0.004,0.004,2.1199446,5.6722842,15.5271618
0.033,0.003,-0.032,-1.3750992,-2.3491278,-2.3491278
0.124,-0.283,0.013,12.7196676,-1.6042824,1.2032118
-0.185,0.038,0.49,-64.1140002,-10.8289062,154.8132516
0,0,0,0,-1.8907614,0.8021412
-0.002,0.001,-0.01,0,-1.8907614,1.0313244
0.058,-0.012,0.005,1.718874,6.4744254,16.8449652
0.034,0.002,-0.037,-2.1772404,-0.4583664,-2.8074942
0.113,-0.306,-0.003,19.0222056,-2.6929026,3.2658606
-0.272,-0.011,0.448,-98.9498466,-23.6058696,164.7827208
0,0,0,0,-1.3750992,0.9740286
-0.004,-0.005,-0.013,0.1145916,-1.0313244,0.9740286
0.078,-0.012,0.007,1.3750992,7.3338624,18.334656
0.032,0,-0.043,-2.291832,0.286479,-2.9220858
0.104,-0.273,-0.033,21.0848544,-4.297185,7.1046792
-0.355,0.017,0.377,-137.223441,-36.7839036,177.4450926
0,0,0,-0.0572958,-0.286479,1.145916
-0.001,-0.005,-0.014,0,-0.286479,1.0886202
0.082,-0.01,0.009,1.0886202,8.1932994,19.767051
0.029,0,-0.046,-2.1199446,0.5156622,-2.9793816
0.101,-0.259,-0.03,16.5011904,-5.5003968,10.7716104
-0.444,-0.007,0.315,-163.6941006,-45.4928652,195.665157
0,0,0,0,1.0886202,1.0886202
-0.001,-0.002,-0.01,-0.1145916,0.6302538,1.3750992
0.072,-0.009,0.011,0.8021412,8.9954406,20.7410796
0.028,0,-0.047,-2.1772404,0.9167328,-2.9793816
0.127,-0.272,-0.017,9.7975818,-6.302538,14.2093584
-0.541,-0.065,0.29,-166.5015948,-47.0971476,216.1770534
0,0,0,0.2291832,2.6929026,1.0313244
-0.004,0,-0.002,-0.3437748,1.432395,1.5469866
0.058,0,0.012,0.5156622,9.5111028,20.7410796
0.028,0.002,-0.04,-1.8907614,2.1199446,-3.0366774
0.148,-0.277,-0.014,3.724227,-6.8182002,16.4438946
-0.602,-0.158,0.302,-151.0890246,-44.1750618,242.9914878
0,0,0,0.5156622,4.297185,0.8021412
-0.012,0.005,0,-0.2291832,1.7761698,1.4896908
0.048,0.007,0.008,0.1718874,9.5683986,19.3659804
0.033,0.005,-0.032,-1.3750992,2.7501984,-3.3804522
0.155,-0.278,-0.008,-0.4583664,-6.875496,17.18874
-0.604,-0.212,0.343,-130.8063114,-39.534102,265.566033
0,0,0,0.286479,5.2712136,0.859437
-0.011,0.007,0.006,-0.3437748,1.9480572,1.6042824
0.05,0,0.001,0.0572958,9.167328,17.0741484
0.042,0.008,-0.036,-0.7448454,3.151269,-3.8388186
0.152,-0.284,-0.003,-2.2345362,-6.1879464,16.6730778
-0.629,-0.202,0.33,-112.586247,-34.091001,286.765479
0,0,0,0.286479,6.1306506,1.2032118
-0.008,0.005,0.014,-0.286479,1.6042824,1.6042824
0.064,-0.023,-0.008,0.2291832,8.5370742,14.2666542
0.04,0.009,-0.043,-0.6875496,4.0680018,-4.1825934
0.131,-0.274,-0.005,-1.3750992,-5.5576926,15.8136408
-0.659,-0.157,0.26,-101.0124954,-28.2468294,306.1887552
0,0,0,0.7448454,5.9014674,1.3750992
-0.003,0.003,0.016,-0.1145916,1.432395,1.3750992
0.083,-0.042,-0.014,0.9167328,7.9068204,11.6310474
0.03,0.009,-0.041,-1.0313244,4.3544808,-4.3544808
0.11,-0.25,-0.012,-2.291832,-4.6409598,15.8709366
-0.721,-0.091,0.111,-103.13244,-24.064236,317.0749572
0,0,0,1.4896908,4.9274388,1.3750992
0.001,-0.004,0.013,-0.0572958,1.0886202,1.3750992
0.095,-0.04,-0.014,1.718874,7.3911582,9.740286
0.018,0.002,-0.042,-1.3178034,2.9220858,-4.4117766
0.119,-0.217,-0.006,-9.5111028,-3.4950438,17.0168526
-0.798,0.04,-0.047,-109.3203864,-19.6524594,326.58606
0,0,0,1.3178034,3.724227,1.3178034
0.005,-0.014,0.013,-0.286479,0.9167328,1.4896908
0.089,-0.024,-0.012,2.4064236,6.9900876,8.59437
0.016,-0.005,-0.042,-1.3750992,1.0313244,-4.583664
0.137,-0.204,0.004,-19.3659804,-1.8334656,18.4492476
-0.845,0.024,-0.03,-133.2700308,-24.7517856,327.0444264
0,0,0,0.4010706,2.6356068,1.2032118
0.004,-0.018,0.013,-0.4583664,0.0572958,1.432395
0.07,-0.007,-0.007,2.7501984,6.6463128,7.8495246
0.019,-0.015,-0.032,-1.432395,-0.859437,-4.583664
0.127,-0.217,0.015,-27.3873924,-0.4583664,19.3086846
-0.813,-0.247,0.013,-154.5840684,-28.7624916,326.3568768
0,0,0,-0.4010706,1.7761698,1.3178034
0.003,-0.01,0.008,-0.3437748,-0.859437,1.3178034
0.052,0.012,-0.002,2.6356068,6.1306506,7.161975
0.018,-0.023,-0.027,-0.9167328,-3.0939732,-4.8128472
0.121,-0.227,0.018,-28.6479,0.6302538,18.8503182
-0.727,-0.412,0.048,-142.2654714,-23.7204612,337.3003746
0,0,0,-0.6875496,1.145916,1.3178034
0.003,0.003,0.006,-0.1145916,-1.8334656,1.3178034
0.028,0.03,0.006,1.718874,5.3285094,6.2452422
0.019,-0.022,-0.022,0.0572958,-5.0420304,-4.9847346
0.122,-0.216,0.004,-24.637194,1.2032118,17.18874
-0.664,-0.485,0.104,-99.2936214,-11.6310474,350.8221834
0,0,0,-0.7448454,0.8021412,1.3750992
0.003,0.009,0.01,0,-2.86479,1.0313244
0.012,0.033,0.011,0.1718874,4.2398892,4.870143
0.021,-0.009,-0.019,0.9740286,-6.7036086,-4.8128472
0.124,-0.221,-0.006,-18.334656,1.6042824,14.9542038
-0.635,-0.577,0.168,-44.5188366,2.86479,356.8382424
0,0,0,-0.4583664,0.0572958,1.145916
0.006,0.005,0.012,0.2291832,-3.8388186,0.6302538
0.001,0.022,0.01,-1.6042824,2.9793816,3.3804522
0.023,0,-0.016,1.432395,-8.5370742,-4.4690724
0.125,-0.23,-0.009,-6.9900876,0.7448454,11.8602306
-0.665,-0.562,0.133,14.610429,22.6891368,364.5731754
0,0,0,-0.1145916,-1.432395,1.0313244
0.01,0,0.015,0.3437748,-4.297185,0.2291832
-0.007,0.006,0.009,-3.6096354,1.5469866,1.718874
0.022,0.002,-0.01,2.4064236,-9.7975818,-4.1252976
0.133,-0.198,-0.018,2.005353,0.1718874,9.0527364
-0.695,-0.494,0.057,58.3844202,43.4302164,371.9643336
0,0,0,-0.0572958,-3.0366774,0.6875496
0.007,-0.001,0.015,0.2291832,-4.7555514,-0.1718874
-0.011,0,0.011,-5.443101,0.1145916,0.1145916
0.026,0.005,-0.013,3.8388186,-11.172681,-3.724227
0.152,-0.175,-0.021,4.9847346,0.2291832,6.016059
-0.725,-0.228,-0.15,57.2958,59.4730404,377.292843
